time,seconds_elapsed,z,y,x
1711523595018936600,0.1339365234375,0.0038499999791383743,-0.03753750026226044,-0.010999999940395355
1711523595028582400,0.14358251953125,-0.0035749999806284904,-0.026537500321865082,-0.01223750039935112
1711523595038228200,0.153228271484375,-0.005912499967962503,-0.009487500414252281,-0.0170499999076128
1711523595047874000,0.1628740234375,-0.0010999999940395355,0.011274999938905239,-0.02447500079870224
1711523595057519900,0.172519775390625,0.0038499999791383743,0.028462499380111694,-0.032999999821186066
1711523595067165400,0.18216552734375,0.012374999932944775,0.030799999833106995,-0.045237500220537186
1711523595076811300,0.191811279296875,0.016087500378489494,0.025987500324845314,-0.057475000619888306
1711523595086457000,0.20145703125,0.016087500378489494,0.013749999925494194,-0.0672374963760376
1711523595096103000,0.21110302734375,0.018424998968839645,-0.0009624999947845936,-0.07081250101327896
1711523595105748700,0.220748779296875,0.016087500378489494,-0.004537499975413084,-0.0635249987244606
1711523595115394600,0.23039453125,0.01484999991953373,-0.002199999988079071,-0.05376249924302101
1711523595125040000,0.2400400390625,0.01484999991953373,0.003987499978393316,-0.04028749838471413
1711523595134686200,0.249686279296875,0.016087500378489494,0.01251249946653843,-0.0317624993622303
1711523595144332000,0.25933203125,0.016087500378489494,0.011274999938905239,-0.02928750030696392
1711523595153977900,0.268977783203125,0.00989999994635582,-0.0032999999821186066,-0.04028749838471413
1711523595163623400,0.27862353515625,-0.0035749999806284904,-0.01924999989569187,-0.05252499878406525
1711523595173269500,0.28826953125,-0.015812499448657036,-0.01924999989569187,-0.057475000619888306
1711523595182915300,0.297915283203125,-0.0193875003606081,-0.010724999941885471,-0.054999999701976776
1711523595192561200,0.30756103515625,-0.01691249944269657,0.005224999971687794,-0.04152499884366989
1711523595202206700,0.317206787109375,-0.004812499973922968,0.01979999989271164,-0.02199999988079071
1711523595211852500,0.3268525390625,0.00989999994635582,0.018699999898672104,-0.007287499960511923
1711523595221498400,0.336498291015625,0.02213750034570694,0.01251249946653843,-0.002474999986588955
1711523595231144200,0.346144287109375,0.025849999859929085,-0.007012499962002039,-0.01347499992698431
1711523595240790000,0.3557900390625,0.01484999991953373,-0.03272499889135361,-0.032999999821186066
1711523595250435600,0.365435546875,-0.0010999999940395355,-0.03506249934434891,-0.04647500067949295
1711523595260081400,0.375081298828125,-0.01209999993443489,-0.018012499436736107,-0.04647500067949295
1711523595269727200,0.384727294921875,-0.013337500393390656,-0.008249999955296516,-0.03671250119805336
1711523595279373000,0.394373046875,-0.009624999947845936,-0.008249999955296516,-0.023237500339746475
1711523595289019000,0.404018798828125,0.00013749999925494194,-0.009487500414252281,-0.006049999967217445
1711523595298664700,0.413664794921875,0.005087499972432852,-0.011962499469518661,0.0085249999538064
1711523595308310500,0.423310546875,0.008662499487400055,-0.011962499469518661,0.015949999913573265
1711523595317956600,0.43295654296875,0.007424999959766865,-0.0009624999947845936,0.0170499999076128
1711523595327602200,0.442602294921875,0.00013749999925494194,0.016224998980760574,0.0147124994546175
1711523595337248000,0.452248046875,-0.009624999947845936,0.014987500384449959,0.0085249999538064
1711523595346893600,0.4618935546875,-0.023099999874830246,-0.002199999988079071,-0.0012374999932944775
1711523595356539400,0.471539306640625,-0.02914999984204769,-0.013199999928474426,-0.00976249948143959
1711523595366185200,0.481185302734375,-0.030387500301003456,-0.013199999928474426,-0.01223750039935112
1711523595375831000,0.4908310546875,-0.025575000792741776,0.002749999985098839,-0.00976249948143959
1711523595385476900,0.500476806640625,-0.020624998956918716,0.011274999938905239,-0.006049999967217445
1711523595395122400,0.510122314453125,-0.0193875003606081,0.008799999952316284,-0.0012374999932944775
1711523595404768300,0.519768310546875,-0.018149999901652336,0.0002749999985098839,0.0037124999798834324
1711523595414414000,0.5294140625,-0.0193875003606081,-0.01924999989569187,0.0037124999798834324
1711523595424060200,0.53906005859375,-0.023099999874830246,-0.04729999974370003,0.006049999967217445
1711523595433706000,0.5487060546875,-0.02433750033378601,-0.05829999968409538,0.00494999997317791
1711523595443351800,0.558351806640625,-0.02186249941587448,-0.0424874983727932,0.007287499960511923
1711523595452997400,0.567997314453125,-0.0193875003606081,-0.018012499436736107,0.0037124999798834324
1711523595462643200,0.577643310546875,-0.02186249941587448,0.010037500411272049,-0.0012374999932944775
1711523595472289300,0.587289306640625,-0.018149999901652336,0.03451250120997429,-0.00494999997317791
1711523595481934800,0.596934814453125,-0.01209999993443489,0.043037500232458115,-0.007287499960511923
1711523595491580700,0.60658056640625,-0.0035749999806284904,0.030799999833106995,-0.01223750039935112
1711523595501226500,0.6162265625,0.0038499999791383743,0.002749999985098839,-0.02447500079870224
1711523595510872000,0.6258720703125,0.005087499972432852,-0.021724998950958252,-0.037812501192092896
1711523595520518100,0.63551806640625,0.0038499999791383743,-0.022962499409914017,-0.04881250113248825
1711523595530163700,0.645163818359375,0.006187499966472387,-0.014299999922513962,-0.05857500061392784
1711523595539809500,0.6548095703125,0.012374999932944775,-0.007012499962002039,-0.06104999780654907
1711523595549455400,0.664455322265625,0.020899999886751175,0.0015124999918043613,-0.054999999701976776
1711523595559101200,0.67410107421875,0.02694999985396862,0.005224999971687794,-0.04152499884366989
1711523595568746800,0.683746826171875,0.029424998909235,0.008799999952316284,-0.023237500339746475
1711523595578392600,0.693392578125,0.02694999985396862,0.03698749840259552,-0.00976249948143959
1711523595588038400,0.703038330078125,0.023375000804662704,0.052799999713897705,0.002474999986588955
1711523595597684200,0.712684326171875,0.012374999932944775,0.03946249932050705,0.01347499992698431
1711523595607330000,0.722330078125,-0.002337499987334013,0.011274999938905239,0.02681249938905239
1711523595616975600,0.7319755859375,-0.015675000846385956,-0.01677500084042549,0.037812501192092896
1711523595626621400,0.741621337890625,-0.020624998956918716,-0.024062499403953552,0.04647500067949295
1711523595636267300,0.751267333984375,-0.018149999901652336,-0.021724998950958252,0.047712501138448715
1711523595645913000,0.7609130859375,-0.013337500393390656,-0.015537500381469727,0.03671250119805336
1711523595655559200,0.77055908203125,-0.009624999947845936,-0.0032999999821186066,0.020762499421834946
1711523595665204700,0.780204833984375,-0.008387500420212746,0.010037500411272049,0
1711523595674850600,0.7898505859375,-0.013337500393390656,0.011274999938905239,-0.020762499421834946
1711523595684496400,0.799496337890625,-0.025575000792741776,0.006462499964982271,-0.03671250119805336
1711523595694142200,0.80914208984375,-0.035337500274181366,0.0015124999918043613,-0.042762499302625656
1711523595703787800,0.818787841796875,-0.04262499883770943,-0.002062499988824129,-0.03423750028014183
1711523595713433600,0.82843359375,-0.04386249929666519,-0.0009624999947845936,-0.020762499421834946
1711523595723079700,0.83807958984375,-0.04138749837875366,0.008799999952316284,-0.0012374999932944775
1711523595732725200,0.847725341796875,-0.03657500073313713,0.014987500384449959,0.01347499992698431
1711523595742371300,0.857371337890625,-0.032862499356269836,0.01979999989271164,0.023237500339746475
1711523595752017000,0.867016845703125,-0.03162499889731407,0.01979999989271164,0.02199999988079071
1711523595761662700,0.876662841796875,-0.02914999984204769,0.011274999938905239,0.007287499960511923
1711523595771308500,0.88630859375,-0.02667500078678131,0.0015124999918043613,-0.015949999913573265
1711523595780954000,0.8959541015625,-0.02433750033378601,-0.0009624999947845936,-0.03904999792575836
1711523595790600000,0.905599853515625,-0.018149999901652336,0.007699999958276749,-0.059812501072883606
1711523595800245800,0.915245849609375,-0.004812499973922968,0.016224998980760574,-0.0672374963760376
1711523595809891600,0.9248916015625,0.006187499966472387,0.013749999925494194,-0.07081250101327896
1711523595819537400,0.934537353515625,0.00989999994635582,0.006462499964982271,-0.06847500056028366
1711523595829183200,0.944183349609375,0.00989999994635582,-0.002062499988824129,-0.0635249987244606
1711523595838829000,0.9538291015625,0.007424999959766865,-0.013062499463558197,-0.057475000619888306
1711523595848475000,0.963474853515625,0.002612499985843897,-0.0057749999687075615,-0.04881250113248825
1711523595858120400,0.973120361328125,-0.004812499973922968,0.010037500411272049,-0.04152499884366989
1711523595867766300,0.982766357421875,-0.013337500393390656,0.014987500384449959,-0.03904999792575836
1711523595877412400,0.992412353515625,-0.020624998956918716,0.002749999985098839,-0.04152499884366989
1711523595887058000,1.002057861328125,-0.02667500078678131,-0.010724999941885471,-0.042762499302625656
1711523595896703700,1.011703857421875,-0.0340999998152256,-0.011962499469518661,-0.04028749838471413
1711523595906349600,1.021349609375,-0.032862499356269836,0.005224999971687794,-0.030524998903274536
1711523595915995400,1.030995361328125,-0.02186249941587448,0.025987500324845314,-0.018287500366568565
1711523595925641200,1.04064111328125,-0.009624999947845936,0.033275000751018524,-0.01223750039935112
1711523595935287000,1.050287109375,0.00013749999925494194,0.023512499406933784,-0.015949999913573265
1711523595944932600,1.0599326171875,0.002612499985843897,0.006462499964982271,-0.028049999848008156
1711523595954578400,1.069578369140625,-0.0010999999940395355,-0.007012499962002039,-0.04152499884366989
1711523595964224300,1.079224365234375,-0.007149999961256981,-0.008249999955296516,-0.047712501138448715
1711523595973870000,1.0888701171875,-0.01209999993443489,0.0015124999918043613,-0.04399999976158142
1711523595983515600,1.098515625,-0.01209999993443489,0.002749999985098839,-0.03423750028014183
1711523595993161500,1.108161376953125,-0.010862499475479126,-0.0032999999821186066,-0.01952499896287918
1711523596002807300,1.117807373046875,-0.009624999947845936,0.0015124999918043613,-0.0037124999798834324
1711523596012453000,1.127453125,-0.0010999999940395355,0.003987499978393316,0.01347499992698431
1711523596022099000,1.137098876953125,0.007424999959766865,-0.002062499988824129,0.02199999988079071
1711523596031745000,1.1467451171875,0.016087500378489494,-0.004537499975413084,0.02928750030696392
1711523596041390600,1.156390625,0.018424998968839645,-0.004537499975413084,0.030524998903274536
1711523596051036400,1.166036376953125,0.01718750037252903,-0.010724999941885471,0.02447500079870224
1711523596060682000,1.175681884765625,0.01484999991953373,-0.013062499463558197,0.0147124994546175
1711523596070328000,1.185328125,0.013612499460577965,-0.007012499962002039,0.007287499960511923
1711523596079973600,1.1949736328125,0.005087499972432852,0.005224999971687794,0.002474999986588955
1711523596089619700,1.20461962890625,-0.0010999999940395355,0.006462499964982271,-0.002474999986588955
1711523596099265300,1.214265380859375,-0.0035749999806284904,-0.010724999941885471,-0.002474999986588955
1711523596108911000,1.2239111328125,0.0038499999791383743,-0.014299999922513962,0.00494999997317791
1711523596118557000,1.233556884765625,0.011137500405311584,-0.004537499975413084,0.015812499448657036
1711523596128202800,1.24320263671875,0.01484999991953373,0.0015124999918043613,0.023237500339746475
1711523596137848600,1.2528486328125,0.011137500405311584,0.005224999971687794,0.025712499395012856
1711523596147494400,1.262494384765625,0.0038499999791383743,0.007699999958276749,0.025712499395012856
1711523596157140000,1.272139892578125,-0.0035749999806284904,-0.0057749999687075615,0.01952499896287918
1711523596166785800,1.281785888671875,-0.02186249941587448,-0.03272499889135361,0.00494999997317791
1711523596176431600,1.291431640625,-0.03891250118613243,-0.04977500066161156,-0.010999999940395355
1711523596186077400,1.301077392578125,-0.05238749831914902,-0.03272499889135361,-0.01952499896287918
1711523596195723000,1.310722900390625,-0.05843750014901161,-0.010724999941885471,-0.015949999913573265
1711523596205368800,1.320368896484375,-0.062150001525878906,0.007699999958276749,-0.0037124999798834324
1711523596215014700,1.3300146484375,-0.06338749825954437,0.016224998980760574,0.020762499421834946
1711523596224660500,1.339660400390625,-0.06462500244379044,0.006462499964982271,0.04647500067949295
1711523596234306300,1.349306396484375,-0.06462500244379044,-0.011962499469518661,0.0672374963760376
1711523596243951900,1.358951904296875,-0.06833750009536743,-0.015537500381469727,0.07328750193119049
1711523596253598000,1.368597900390625,-0.06710000336170197,-0.010724999941885471,0.06228749826550484
1711523596263243800,1.378243896484375,-0.06710000336170197,-0.0032999999821186066,0.037812501192092896
1711523596272889300,1.387889404296875,-0.0658624991774559,0.013749999925494194,0.002474999986588955
1711523596282535400,1.397535400390625,-0.06833750009536743,0.02474999986588955,-0.04028749838471413
1711523596292181200,1.40718115234375,-0.0658624991774559,0.028462499380111694,-0.07699999958276749
1711523596301827000,1.4168271484375,-0.057337500154972076,0.033275000751018524,-0.09157499670982361
1711523596311472600,1.42647265625,-0.04262499883770943,0.055275000631809235,-0.08923749625682831
1711523596321118500,1.436118408203125,-0.02433750033378601,0.06627500057220459,-0.07204999774694443
1711523596330764300,1.445764404296875,-0.002337499987334013,0.06146249920129776,-0.042762499302625656
1711523596340410000,1.45541015625,0.020899999886751175,0.045512501150369644,-0.007287499960511923
1711523596350056000,1.465055908203125,0.033137500286102295,0.01979999989271164,0.020762499421834946
1711523596359701500,1.474701416015625,0.03437500074505806,-0.011962499469518661,0.0317624993622303
1711523596369347300,1.484347412109375,0.025849999859929085,-0.04729999974370003,0.02199999988079071
1711523596378993200,1.4939931640625,0.011137500405311584,-0.08030000329017639,-0.0037124999798834324
1711523596388639000,1.503638916015625,-0.009624999947845936,-0.09129999577999115,-0.03423750028014183
1711523596398284800,1.513284912109375,-0.035337500274181366,-0.09253749996423721,-0.07328750193119049
1711523596407930400,1.522930419921875,-0.06338749825954437,-0.0742499977350235,-0.10876250267028809
1711523596417576200,1.532576171875,-0.08786249905824661,-0.05224999785423279,-0.14409999549388885
1711523596427222000,1.542221923828125,-0.11110000312328339,-0.0424874983727932,-0.18205000460147858
1711523596436868000,1.5518681640625,-0.13062499463558197,-0.03148749843239784,-0.21986250579357147
1711523596446513700,1.561513671875,-0.14396250247955322,-0.013062499463558197,-0.25286251306533813
1711523596456159500,1.571159423828125,-0.1391499936580658,-0.0057749999687075615,-0.2798124849796295
1711523596465805300,1.580805419921875,-0.12691250443458557,-0.011962499469518661,-0.3053874969482422
1711523596475451100,1.590451171875,-0.1036750003695488,-0.03396249935030937,-0.33233749866485596
1711523596485097000,1.600096923828125,-0.09019999951124191,-0.0705375000834465,-0.35667499899864197
1711523596494742800,1.60974267578125,-0.08167500048875809,-0.09982500225305557,-0.3713875114917755
1711523596504388400,1.619388427734375,-0.06943749636411667,-0.10477499663829803,-0.3713875114917755
1711523596514034200,1.6290341796875,-0.05115000158548355,-0.10106249898672104,-0.3591499924659729
1711523596523680300,1.63868017578125,-0.027912499383091927,-0.08030000329017639,-0.3371500074863434
1711523596533325800,1.648325927734375,-0.01209999993443489,-0.06201250106096268,-0.3115749955177307
1711523596542971600,1.6579716796875,-0.004812499973922968,-0.06324999779462814,-0.29438748955726624
1711523596552617500,1.667617431640625,-0.005912499967962503,-0.0742499977350235,-0.28462499380111694
1711523596562263300,1.67726318359375,-0.02186249941587448,-0.08758749812841415,-0.273624986410141
1711523596571909000,1.6869091796875,-0.04867500066757202,-0.10106249898672104,-0.25905001163482666
1711523596581555000,1.696554931640625,-0.07809999585151672,-0.13282500207424164,-0.23333749175071716
1711523596591200500,1.706200439453125,-0.10243749618530273,-0.17077499628067017,-0.19552500545978546
1711523596600846300,1.715846435546875,-0.11467500030994415,-0.19030000269412994,-0.14409999549388885
1711523596610492200,1.7254921875,-0.11962500214576721,-0.20006249845027924,-0.10381250083446503
1711523596620138000,1.735137939453125,-0.12209999561309814,-0.20858749747276306,-0.08428750187158585
1711523596629783600,1.744783447265625,-0.11467500030994415,-0.1915374994277954,-0.07947500050067902
1711523596639429400,1.754429443359375,-0.10491249710321426,-0.14877499639987946,-0.08676250278949738
1711523596649075500,1.764075439453125,-0.09886249899864197,-0.12430000305175781,-0.10381250083446503
1711523596658721000,1.773720947265625,-0.08910000324249268,-0.10477499663829803,-0.11852499842643738
1711523596668366800,1.783366943359375,-0.0719124972820282,-0.0765874981880188,-0.11604999750852585
1711523596678012700,1.7930126953125,-0.05843750014901161,-0.06201250106096268,-0.10876250267028809
1711523596687658500,1.802658447265625,-0.057337500154972076,-0.07548750191926956,-0.10257499665021896
1711523596697304000,1.812303955078125,-0.06091250106692314,-0.11329999566078186,-0.0989999994635582
1711523596706950000,1.821949951171875,-0.07315000146627426,-0.16335000097751617,-0.10023749619722366
1711523596716596000,1.831595947265625,-0.08415000140666962,-0.20377500355243683,-0.10999999940395355
1711523596726241500,1.841241455078125,-0.08662500232458115,-0.2623499929904938,-0.12223749607801437
1711523596735887400,1.850887451171875,-0.08415000140666962,-0.32339999079704285,-0.12581250071525574
1711523596745533200,1.860533203125,-0.07315000146627426,-0.357637494802475,-0.11604999750852585
1711523596755179000,1.870178955078125,-0.047575000673532486,-0.357637494802475,-0.0952875018119812
1711523596764824800,1.879824951171875,-0.014574999921023846,-0.3246375024318695,-0.0695749968290329
1711523596774470400,1.889470458984375,0.013612499460577965,-0.2745875120162964,-0.047712501138448715
1711523596784116500,1.899116455078125,0.030662499368190765,-0.23663750290870667,-0.037812501192092896
1711523596793762000,1.908761962890625,0.03437500074505806,-0.19277499616146088,-0.02447500079870224
1711523596803408000,1.918407958984375,0.01718750037252903,-0.16335000097751617,-0.006049999967217445
1711523596813053700,1.9280537109375,-0.010862499475479126,-0.14630000293254852,0.02928750030696392
1711523596822699500,1.937699462890625,-0.04386249929666519,-0.14506250619888306,0.07823749631643295
1711523596832345300,1.947345458984375,-0.08291249722242355,-0.14630000293254852,0.1307625025510788
1711523596841991200,1.9569912109375,-0.11343749612569809,-0.13529999554157257,0.17833749949932098
1711523596851637000,1.966636962890625,-0.12815000116825104,-0.13653749227523804,0.20157499611377716
1711523596861282600,1.976282470703125,-0.12815000116825104,-0.147537499666214,0.17833749949932098
1711523596870928400,1.985928466796875,-0.11110000312328339,-0.14630000293254852,0.12333749979734421
1711523596880574500,1.995574462890625,-0.08786249905824661,-0.1280124932527542,0.042762499302625656
1711523596890220300,2.00522021484375,-0.05843750014901161,-0.11577499657869339,-0.04028749838471413
1711523596899865900,2.014865966796875,-0.02914999984204769,-0.09253749996423721,-0.10381250083446503
1711523596909511700,2.02451171875,-0.002337499987334013,-0.07548750191926956,-0.1331000030040741
1711523596919157500,2.034157470703125,0.025849999859929085,-0.08401250094175339,-0.11852499842643738
1711523596928803300,2.04380322265625,0.04661250114440918,-0.10353749990463257,-0.059812501072883606
1711523596938449200,2.05344921875,0.0648999959230423,-0.10106249898672104,0.03904999792575836
1711523596948094700,2.0630947265625,0.08071249723434448,-0.09253749996423721,0.14904999732971191
1711523596957740500,2.072740478515625,0.09171249717473984,-0.0765874981880188,0.24928750097751617
1711523596967386400,2.082386474609375,0.09913749992847443,-0.05829999968409538,0.32257500290870667
1711523596977032200,2.0920322265625,0.10518749803304672,-0.03272499889135361,0.36162498593330383
1711523596986678000,2.101677978515625,0.11618749797344208,-0.03396249935030937,0.36162498593330383
1711523596996324000,2.111323974609375,0.11137499660253525,-0.08401250094175339,0.3188624978065491
1711523597005969700,2.1209697265625,0.09913749992847443,-0.14630000293254852,0.24681249260902405
1711523597015615500,2.130615478515625,0.08689999580383301,-0.17201249301433563,0.1648624986410141
1711523597025261000,2.140260986328125,0.06737499684095383,-0.15001249313354492,0.07328750193119049
1711523597034907100,2.1499072265625,0.042899999767541885,-0.07782500237226486,-0.00976249948143959
1711523597044553000,2.159552978515625,0.018424998968839645,0.005224999971687794,-0.07452499866485596
1711523597054198500,2.169198486328125,0.0013749999925494194,0.06503749638795853,-0.11233749985694885
1711523597063844400,2.17884423828125,-0.009624999947845936,0.0943249985575676,-0.12223749607801437
1711523597073490200,2.188490234375,-0.0193875003606081,0.09322500228881836,-0.10999999940395355
1711523597083136000,2.198135986328125,-0.03657500073313713,0.07122500240802765,-0.08181250095367432
1711523597092781800,2.20778173828125,-0.05486249923706055,0.038224998861551285,-0.05252499878406525
1711523597102427400,2.217427490234375,-0.06833750009536743,0.003987499978393316,-0.028049999848008156
1711523597112073500,2.227073486328125,-0.07067500054836273,-0.0009624999947845936,0.00494999997317791
1711523597121719300,2.23671923828125,-0.06462500244379044,0.01746249943971634,0.045237500220537186
1711523597131365000,2.246365234375,-0.05238749831914902,0.04427500069141388,0.08057499676942825
1711523597141010700,2.2560107421875,-0.03891250118613243,0.06751249730587006,0.10257499665021896
1711523597150656500,2.265656494140625,-0.032862499356269836,0.08951249718666077,0.10999999940395355
1711523597160302300,2.27530224609375,-0.03657500073313713,0.11275000125169754,0.10999999940395355
1711523597169948200,2.2849482421875,-0.04262499883770943,0.1297999918460846,0.10876250267028809
1711523597179593700,2.29459375,-0.04386249929666519,0.13227500021457672,0.10628750175237656
1711523597189239600,2.304239501953125,-0.040150001645088196,0.11151249706745148,0.09033749997615814
1711523597198885600,2.3138857421875,-0.0340999998152256,0.0845625028014183,0.06599999964237213
1711523597208531200,2.32353125,-0.02914999984204769,0.07246249914169312,0.037812501192092896
1711523597218177000,2.333177001953125,-0.025575000792741776,0.09322500228881836,0.0170499999076128
1711523597227823000,2.342822998046875,-0.023099999874830246,0.12856249511241913,0.002474999986588955
1711523597237469000,2.352468994140625,-0.020624998956918716,0.1555124968290329,-0.01223750039935112
1711523597247114800,2.36211474609375,-0.013337500393390656,0.16651250422000885,-0.032999999821186066
1711523597256760300,2.37176025390625,-0.005912499967962503,0.16775000095367432,-0.0695749968290329
1711523597266406100,2.38140625,0.002612499985843897,0.18108749389648438,-0.10876250267028809
1711523597276051700,2.3910517578125,0.012374999932944775,0.20432500541210175,-0.14300000667572021
1711523597285697500,2.400697509765625,0.023375000804662704,0.2287999987602234,-0.17476250231266022
1711523597295343400,2.41034326171875,0.037950001657009125,0.23003749549388885,-0.1942874938249588
1711523597304989200,2.4199892578125,0.050187498331069946,0.19951249659061432,-0.19304999709129333
1711523597314635300,2.42963525390625,0.06613750010728836,0.1480875015258789,-0.16005000472068787
1711523597324280800,2.43928076171875,0.09542500227689743,0.09556250274181366,-0.1050499975681305
1711523597333927000,2.448927001953125,0.1344749927520752,0.060224998742341995,-0.04647500067949295
1711523597343572500,2.458572509765625,0.18095000088214874,0.04675000160932541,0.0085249999538064
1711523597353218300,2.46821826171875,0.23100000619888306,0.055275000631809235,0.04399999976158142
1711523597362864000,2.477864013671875,0.27871251106262207,0.08098749816417694,0.06228749826550484
1711523597372510000,2.487510009765625,0.31171250343322754,0.1200374960899353,0.057475000619888306
1711523597382155800,2.49715576171875,0.33605000376701355,0.16885000467300415,0.028049999848008156
1711523597391801600,2.506801513671875,0.3482874929904938,0.2116124927997589,-0.01952499896287918
1711523597401447400,2.516447509765625,0.3544749915599823,0.21656249463558197,-0.08057499676942825
1711523597411093000,2.526093017578125,0.35571250319480896,0.20308749377727509,-0.12952500581741333
1711523597420738800,2.53573876953125,0.34952500462532043,0.18479999899864197,-0.1527625024318695
1711523597430384600,2.545384521484375,0.3422375023365021,0.1335124969482422,-0.15028749406337738
1711523597440030500,2.555030517578125,0.33371248841285706,0.0919874981045723,-0.12581250071525574
1711523597449676000,2.564676025390625,0.32147499918937683,0.060224998742341995,-0.08552499860525131
1711523597459322000,2.574322021484375,0.3092375099658966,0.028462499380111694,-0.03423750028014183
1711523597468968000,2.583968017578125,0.3092375099658966,0.016224998980760574,0.01347499992698431
1711523597478613800,2.59361376953125,0.3190000057220459,0.02474999986588955,0.054999999701976776
1711523597488259300,2.60325927734375,0.3349500000476837,0.03451250120997429,0.07452499866485596
1711523597497905200,2.6129052734375,0.3544749915599823,0.028462499380111694,0.0672374963760376
1711523597507551000,2.622551025390625,0.38005000352859497,0.02474999986588955,0.04647500067949295
1711523597517196500,2.632196533203125,0.4045250117778778,0.03946249932050705,0.015812499448657036
1711523597526842400,2.64184228515625,0.42157500982284546,0.057750001549720764,-0.01347499992698431
1711523597536488200,2.65148828125,0.427762508392334,0.06146249920129776,-0.045237500220537186
1711523597546134000,2.661134033203125,0.4179999828338623,0.055275000631809235,-0.07699999958276749
1711523597555779800,2.67077978515625,0.4020499885082245,0.033275000751018524,-0.11123749613761902
1711523597565425700,2.68042578125,0.3777124881744385,0.006462499964982271,-0.13928750157356262
1711523597575071500,2.690071533203125,0.35199999809265137,-0.008249999955296516,-0.1551000028848648
1711523597584717300,2.69971728515625,0.3385249972343445,-0.002062499988824129,-0.15757499635219574
1711523597594363100,2.709363037109375,0.3324750065803528,0.010037500411272049,-0.14904999732971191
1711523597604009000,2.719009033203125,0.33605000376701355,0.021037500351667404,-0.11728750169277191
1711523597613654800,2.72865478515625,0.3422375023365021,0.02722499892115593,-0.07081250101327896
1711523597623300600,2.738300537109375,0.34952500462532043,0.040699999779462814,-0.0170499999076128
1711523597632946200,2.7479462890625,0.3568125069141388,0.06503749638795853,0.03423750028014183
1711523597642592300,2.75759228515625,0.36547499895095825,0.10175000131130219,0.08057499676942825
1711523597652238000,2.767238037109375,0.3642374873161316,0.13956250250339508,0.11233749985694885
1711523597661884000,2.7768837890625,0.3544749915599823,0.13474999368190765,0.12581250071525574
1711523597671529500,2.786529541015625,0.32752498984336853,0.07603749632835388,0.11852499842643738
1711523597681175300,2.79617529296875,0.2872374951839447,-0.004537499975413084,0.09404999762773514
1711523597690821400,2.8058212890625,0.23718750476837158,-0.06201250106096268,0.06847500056028366
1711523597700467000,2.815467041015625,0.1956624984741211,-0.08030000329017639,0.057475000619888306
1711523597710112800,2.82511279296875,0.17723749577999115,-0.08648750185966492,0.05623750016093254
1711523597719758800,2.8347587890625,0.17847499251365662,-0.09624999761581421,0.04881250113248825
1711523597729404700,2.84440478515625,0.17847499251365662,-0.09129999577999115,0.030524998903274536
1711523597739050200,2.85405029296875,0.16513749957084656,-0.08882500231266022,-0.00494999997317791
1711523597748696000,2.863696044921875,0.12966249883174896,-0.08882500231266022,-0.05128749832510948
1711523597758342000,2.873341796875,0.07837499678134918,-0.08648750185966492,-0.09652499854564667
1711523597767987700,2.88298779296875,0.02213750034570694,-0.09982500225305557,-0.14176249504089355
1711523597777633300,2.89263330078125,-0.03162499889731407,-0.1340624988079071,-0.1905750036239624
1711523597787279000,2.902279052734375,-0.06091250106692314,-0.15234999358654022,-0.2223374992609024
1711523597796925000,2.911925048828125,-0.06091250106692314,-0.1280124932527542,-0.22852499783039093
1711523597806570800,2.92157080078125,-0.04262499883770943,-0.09735000133514404,-0.2162874937057495
1711523597816216600,2.931216552734375,-0.015675000846385956,-0.06324999779462814,-0.17586250603199005
1711523597825862400,2.9408623046875,0.013612499460577965,-0.015537500381469727,-0.12581250071525574
1711523597835508200,2.95050830078125,0.03684999793767929,0.021037500351667404,-0.07947500050067902
1711523597845154300,2.960154296875,0.050187498331069946,0.043037500232458115,-0.04881250113248825
1711523597854800000,2.9697998046875,0.055137500166893005,0.040699999779462814,-0.03423750028014183
1711523597864445700,2.97944580078125,0.047849997878074646,0.02227500081062317,-0.035475000739097595
1711523597874091500,2.989091552734375,0.030662499368190765,-0.01677500084042549,-0.042762499302625656
1711523597883737300,2.9987373046875,0.018424998968839645,-0.06324999779462814,-0.04647500067949295
1711523597893383200,3.008383056640625,0.01718750037252903,-0.08524999767541885,-0.035475000739097595
1711523597903028700,3.01802880859375,0.025849999859929085,-0.07548750191926956,-0.02447500079870224
1711523597912674800,3.0276748046875,0.037950001657009125,-0.07177499681711197,-0.030524998903274536
1711523597922320600,3.037320556640625,0.05884999781847,-0.06324999779462814,-0.05871250107884407
1711523597931966200,3.04696630859375,0.07713750004768372,-0.05472499877214432,-0.09776250272989273
1711523597941612000,3.056612060546875,0.10271249711513519,-0.03272499889135361,-0.14781250059604645
1711523597951257900,3.0662578125,0.13089999556541443,-0.002062499988824129,-0.19786250591278076
1711523597960904000,3.075904052734375,0.1639000028371811,0.040699999779462814,-0.23333749175071716
1711523597970549800,3.0855498046875,0.20666250586509705,0.0943249985575676,-0.22605000436306
1711523597980195300,3.0951953125,0.25671249628067017,0.1480875015258789,-0.17957499623298645
1711523597989841000,3.1048408203125,0.2957625091075897,0.17503750324249268,-0.10752499848604202
1711523597999487000,3.114487060546875,0.3129499852657318,0.18603749573230743,-0.032999999821186066
1711523598009132800,3.1241328125,0.3031874895095825,0.16279999911785126,0.030524998903274536
1711523598018778600,3.133778564453125,0.26042500138282776,0.11879999935626984,0.07576250284910202
1711523598028424200,3.143424072265625,0.20295000076293945,0.05156249925494194,0.10628750175237656
1711523598038070300,3.1530703125,0.13942499458789825,-0.01924999989569187,0.13433749973773956
1711523598047715800,3.1627158203125,0.07466249912977219,-0.08401250094175339,0.16128750145435333
1711523598057361700,3.172361572265625,0.02694999985396862,-0.13282500207424164,0.1845249980688095
1711523598067007500,3.182007568359375,-0.002337499987334013,-0.1755875051021576,0.1845249980688095
1711523598076653300,3.1916533203125,-0.020624998956918716,-0.20858749747276306,0.14781250059604645
1711523598086299100,3.201299072265625,-0.03891250118613243,-0.22577500343322754,0.06599999964237213
1711523598095945000,3.210945068359375,-0.06833750009536743,-0.22577500343322754,-0.059812501072883606
1711523598105590800,3.2205908203125,-0.10862500220537186,-0.20982499420642853,-0.20886249840259552
1711523598115236400,3.230236328125,-0.14643749594688416,-0.17201249301433563,-0.34814998507499695
1711523598124882200,3.239882080078125,-0.17572499811649323,-0.11453749984502792,-0.4398624897003174
1711523598134528000,3.249528076171875,-0.1891999989748001,-0.04372499883174896,-0.467912495136261
1711523598144173800,3.259173828125,-0.18438750505447388,0.01746249943971634,-0.4324375092983246
1711523598153819600,3.268819580078125,-0.16238750517368317,0.06146249920129776,-0.340862512588501
1711523598163465500,3.278465576171875,-0.13186250627040863,0.0943249985575676,-0.2125750035047531
1711523598173111300,3.288111328125,-0.10243749618530273,0.10051249712705612,-0.07699999958276749
1711523598182757400,3.29775732421875,-0.08415000140666962,0.06503749638795853,0.02928750030696392
1711523598192403200,3.3074033203125,-0.07315000146627426,0.01251249946653843,0.0952875018119812
1711523598202049000,3.317049072265625,-0.0658624991774559,-0.029012499377131462,0.12223749607801437
1711523598211694800,3.32669482421875,-0.05238749831914902,-0.04729999974370003,0.11852499842643738
1711523598221340700,3.336340576171875,-0.02667500078678131,-0.03272499889135361,0.0952875018119812
1711523598230986500,3.345986572265625,0.00013749999925494194,0.002749999985098839,0.059812501072883606
1711523598240632000,3.355632080078125,0.016087500378489494,0.028462499380111694,0.015949999913573265
1711523598250278000,3.36527783203125,0.025849999859929085,0.038224998861551285,-0.0317624993622303
1711523598259923700,3.374923828125,0.023375000804662704,0.028462499380111694,-0.08428750187158585
1711523598269569500,3.384569580078125,0.00989999994635582,-0.0057749999687075615,-0.1405249983072281
1711523598279215400,3.39421533203125,-0.013337500393390656,-0.0387750007212162,-0.1868624985218048
1711523598288861000,3.40386083984375,-0.04386249929666519,-0.04853750020265579,-0.21133749186992645
1711523598298506800,3.4135068359375,-0.06833750009536743,-0.05101250112056732,-0.2186249941587448
1711523598308152600,3.423152587890625,-0.08786249905824661,-0.06572499871253967,-0.21986250579357147
1711523598317798400,3.43279833984375,-0.09391249716281891,-0.05706249922513962,-0.20886249840259552
1711523598327444200,3.4424443359375,-0.08910000324249268,-0.03396249935030937,-0.2003374993801117
1711523598337090000,3.452090087890625,-0.08415000140666962,-0.01677500084042549,-0.20281249284744263
1711523598346735900,3.46173583984375,-0.08167500048875809,-0.009487500414252281,-0.20886249840259552
1711523598356381700,3.471381591796875,-0.08662500232458115,0.002749999985098839,-0.2162874937057495
1711523598366027300,3.48102734375,-0.0976250022649765,0.013749999925494194,-0.21133749186992645
1711523598375673300,3.49067333984375,-0.10862500220537186,0.021037500351667404,-0.19552500545978546
1711523598385319200,3.500319091796875,-0.11962500214576721,0.02474999986588955,-0.1722874939441681
1711523598394965000,3.509965087890625,-0.13420000672340393,0.02956249937415123,-0.15399999916553497
1711523598404610800,3.51961083984375,-0.14767499268054962,0.01979999989271164,-0.13805000483989716
1711523598414256600,3.529256591796875,-0.15386250615119934,0.005224999971687794,-0.11852499842643738
1711523598423902500,3.53890234375,-0.16238750517368317,-0.009487500414252281,-0.0952875018119812
1711523598433548300,3.54854833984375,-0.170912504196167,-0.030249999836087227,-0.07328750193119049
1711523598443194000,3.558194091796875,-0.1769624948501587,-0.05224999785423279,-0.05004999786615372
1711523598452840000,3.56783984375,-0.17820000648498535,-0.0705375000834465,-0.035475000739097595
1711523598462485800,3.57748583984375,-0.18314999341964722,-0.08524999767541885,-0.02199999988079071
1711523598472131600,3.587131591796875,-0.19167499244213104,-0.07548750191926956,0.0012374999932944775
1711523598481777400,3.59677734375,-0.19772499799728394,-0.04606249928474426,0.0317624993622303
1711523598491423200,3.60642333984375,-0.20391249656677246,-0.03629999980330467,0.057475000619888306
1711523598501069000,3.616069091796875,-0.20996250212192535,-0.05348749831318855,0.07576250284910202
1711523598510714600,3.625714599609375,-0.21615000069141388,-0.08401250094175339,0.08552499860525131
1711523598520360700,3.635360595703125,-0.21367499232292175,-0.13282500207424164,0.1013374999165535
1711523598530006500,3.645006591796875,-0.20748749375343323,-0.15482500195503235,0.12952500581741333
1711523598539652400,3.65465234375,-0.1989624947309494,-0.13048750162124634,0.17599999904632568
1711523598549298000,3.6642978515625,-0.18191249668598175,-0.07906249910593033,0.2320999950170517
1711523598558943700,3.67394384765625,-0.15496249496936798,-0.03629999980330467,0.28338751196861267
1711523598568589600,3.683589599609375,-0.1451999992132187,-0.01924999989569187,0.31404998898506165
1711523598578235400,3.6932353515625,-0.15867500007152557,-0.03519999980926514,0.30662500858306885
1711523598587881200,3.702881103515625,-0.18314999341964722,-0.05348749831318855,0.2761000096797943
1711523598597527000,3.712527099609375,-0.19772499799728394,-0.04496249929070473,0.23333749175071716
1711523598607172900,3.7221728515625,-0.1989624947309494,-0.014299999922513962,0.19676250219345093
1711523598616818700,3.731818603515625,-0.18562500178813934,0.02956249937415123,0.18576249480247498
1711523598626464300,3.74146435546875,-0.16238750517368317,0.06751249730587006,0.19676250219345093
1711523598636110300,3.7511103515625,-0.14643749594688416,0.06503749638795853,0.20652499794960022
1711523598645756200,3.760756103515625,-0.1293874979019165,0.035750001668930054,0.21133749186992645
1711523598655402000,3.770402099609375,-0.10986249893903732,0.010037500411272049,0.2162874937057495
1711523598665047800,3.7800478515625,-0.09143749624490738,-0.002199999988079071,0.2162874937057495
1711523598674693600,3.789693603515625,-0.08043749630451202,-0.008249999955296516,0.20157499611377716
1711523598684339500,3.79933935546875,-0.07809999585151672,-0.011962499469518661,0.17599999904632568
1711523598693985300,3.8089853515625,-0.07562500238418579,-0.01677500084042549,0.1527625024318695
1711523598703631000,3.818631103515625,-0.07686249911785126,-0.03629999980330467,0.1307625025510788
1711523598713277000,3.82827685546875,-0.08043749630451202,-0.06696250289678574,0.11481250077486038
1711523598722922800,3.8379228515625,-0.08167500048875809,-0.06806249916553497,0.11123749613761902
1711523598732568300,3.847568359375,-0.07686249911785126,-0.03148749843239784,0.11976250261068344
1711523598742214400,3.85721435546875,-0.0719124972820282,0.033275000751018524,0.1307625025510788
1711523598751860200,3.866860107421875,-0.07438749819993973,0.10051249712705612,0.13557499647140503
1711523598761506000,3.876506103515625,-0.08415000140666962,0.15427500009536743,0.12457499653100967
1711523598771152000,3.88615185546875,-0.10243749618530273,0.19085000455379486,0.1050499975681305
1711523598780797700,3.895797607421875,-0.1256749927997589,0.20308749377727509,0.08304999768733978
1711523598790443500,3.905443603515625,-0.15619999170303345,0.1933249980211258,0.05376249924302101
1711523598800089300,3.91508935546875,-0.18067499995231628,0.17627499997615814,0.02694999985396862
1711523598809735200,3.924735107421875,-0.19772499799728394,0.1578499972820282,0.0037124999798834324
1711523598819381000,3.934381103515625,-0.20996250212192535,0.15908749401569366,-0.006049999967217445
1711523598829026800,3.94402685546875,-0.2124374955892563,0.18108749389648438,-0.004812499973922968
1711523598838672600,3.953672607421875,-0.1989624947309494,0.2116124927997589,0.0037124999798834324
1711523598848318200,3.963318115234375,-0.1648624986410141,0.2311374992132187,0.0170499999076128
1711523598857964000,3.972964111328125,-0.11838749796152115,0.22384999692440033,0.02928750030696392
1711523598867609900,3.98260986328125,-0.07315000146627426,0.18603749573230743,0.0317624993622303
1711523598877255700,3.992255615234375,-0.03162499889731407,0.14561249315738678,0.030524998903274536
1711523598886901800,4.00190185546875,-0.0010999999940395355,0.11879999935626984,0.01952499896287918
1711523598896547600,4.011547607421875,0.015949999913573265,0.11275000125169754,0
1711523598906193200,4.021193115234375,0.01966249942779541,0.10903749614953995,-0.02928750030696392
1711523598915839000,4.0308388671875,0.01484999991953373,0.11027500033378601,-0.057475000619888306
1711523598925485000,4.040485107421875,0.005087499972432852,0.09927500039339066,-0.08552499860525131
1711523598935131000,4.050130859375,0.00013749999925494194,0.08208750188350677,-0.10257499665021896
1711523598944776700,4.059776611328125,0.0038499999791383743,0.07232499867677689,-0.10023749619722366
1711523598954422500,4.069422607421875,0.007424999959766865,0.04922499880194664,-0.09033749997615814
1711523598964068000,4.079068115234375,0.00989999994635582,0.014987500384449959,-0.07081250101327896
1711523598973714000,4.0887138671875,0.013612499460577965,-0.011962499469518661,-0.05004999786615372
1711523598983359700,4.09835986328125,0.01718750037252903,-0.029012499377131462,-0.035475000739097595
1711523598993005600,4.108005615234375,0.02461249940097332,-0.03629999980330467,-0.035475000739097595
1711523599002651400,4.1176513671875,0.02213750034570694,-0.04124999791383743,-0.05004999786615372
1711523599012297200,4.127297119140625,0.01966249942779541,-0.027775000780820847,-0.0672374963760376
1711523599021943000,4.136943115234375,0.01966249942779541,0.006462499964982271,-0.07933750003576279
1711523599031588900,4.1465888671875,0.018424998968839645,0.04922499880194664,-0.09281250089406967
1711523599041234700,4.156234619140625,0.020899999886751175,0.08332499861717224,-0.11357499659061432
1711523599050880500,4.165880615234375,0.023375000804662704,0.0919874981045723,-0.13928750157356262
1711523599060526300,4.1755263671875,0.02213750034570694,0.08579999953508377,-0.16376249492168427
1711523599070172400,4.18517236328125,0.018424998968839645,0.06503749638795853,-0.18081249296665192
1711523599079818200,4.194818359375,0.02213750034570694,0.03932499885559082,-0.18328750133514404
1711523599089463800,4.2044638671875,0.035612501204013824,0.02722499892115593,-0.1648624986410141
1711523599099109600,4.214109619140625,0.052662499248981476,0.023512499406933784,-0.14176249504089355
1711523599108755500,4.22375537109375,0.06971249729394913,0.02722499892115593,-0.11976250261068344
1711523599118401300,4.2334013671875,0.08442500233650208,0.045512501150369644,-0.10023749619722366
1711523599128047000,4.243047119140625,0.09913749992847443,0.07727500051259995,-0.08428750187158585
1711523599137693000,4.25269287109375,0.10642500221729279,0.0882750004529953,-0.08057499676942825
1711523599147338800,4.2623388671875,0.10518749803304672,0.08332499861717224,-0.08428750187158585
1711523599156984600,4.271984619140625,0.10271249711513519,0.07356250286102295,-0.09033749997615814
1711523599166630400,4.28163037109375,0.10037499666213989,0.055275000631809235,-0.0952875018119812
1711523599176276200,4.291276123046875,0.09913749992847443,0.025987500324845314,-0.1050499975681305
1711523599185922300,4.30092236328125,0.09790000319480896,0.0002749999985098839,-0.11728750169277191
1711523599195568000,4.310568115234375,0.0966624990105629,-0.0009624999947845936,-0.12828749418258667
1711523599205214000,4.3202138671875,0.10037499666213989,0.018562499433755875,-0.12828749418258667
1711523599214859800,4.32985986328125,0.11013749986886978,0.04675000160932541,-0.12457499653100967
1711523599224505300,4.33950537109375,0.11618749797344208,0.06503749638795853,-0.11728750169277191
1711523599234151200,4.349151123046875,0.1247124969959259,0.06751249730587006,-0.10876250267028809
1711523599243797000,4.358796875,0.12966249883174896,0.04427500069141388,-0.10752499848604202
1711523599253442800,4.36844287109375,0.13089999556541443,0.005224999971687794,-0.11110000312328339
1711523599263088600,4.378088623046875,0.13942499458789825,-0.002199999988079071,-0.10876250267028809
1711523599272734500,4.387734375,0.15166249871253967,0.01746249943971634,-0.1013374999165535
1711523599282380300,4.39738037109375,0.16266250610351562,0.035750001668930054,-0.09157499670982361
1711523599292026400,4.4070263671875,0.17242500185966492,0.052799999713897705,-0.07933750003576279
1711523599301672200,4.416672119140625,0.1699499934911728,0.047987498342990875,-0.06476250290870667
1711523599311318000,4.426318115234375,0.1541374921798706,0.028462499380111694,-0.05623750016093254
1711523599320963800,4.4359638671875,0.13089999556541443,0.0002749999985098839,-0.05252499878406525
1711523599330609700,4.445609619140625,0.09913749992847443,-0.029012499377131462,-0.05128749832510948
1711523599340255500,4.45525537109375,0.06971249729394913,-0.05472499877214432,-0.047575000673532486
1711523599349901300,4.4649013671875,0.05142499879002571,-0.07782500237226486,-0.04152499884366989
1711523599359547100,4.474547119140625,0.047712501138448715,-0.09624999761581421,-0.028049999848008156
1711523599369193000,4.48419287109375,0.052662499248981476,-0.08772499859333038,-0.010999999940395355
1711523599378838500,4.493838623046875,0.06366249918937683,-0.05706249922513962,0.0147124994546175
1711523599388484400,4.503484375,0.08318749815225601,-0.029012499377131462,0.03671250119805336
1711523599398130200,4.513130126953125,0.10642500221729279,-0.011962499469518661,0.04152499884366989
1711523599407776000,4.52277587890625,0.12718750536441803,0.01746249943971634,0.03904999792575836
1711523599417422000,4.532422119140625,0.14190000295639038,0.04675000160932541,0.01952499896287918
1711523599427068200,4.542068115234375,0.1564749926328659,0.06751249730587006,-0.0085249999538064
1711523599436714000,4.5517138671875,0.17971250414848328,0.0943249985575676,-0.023237500339746475
1711523599446359600,4.561359619140625,0.20295000076293945,0.11384999752044678,-0.02199999988079071
1711523599456005400,4.57100537109375,0.21271249651908875,0.08332499861717224,-0.00976249948143959
1711523599465651200,4.580651123046875,0.201712504029274,0.014987500384449959,-0.0037124999798834324
1711523599475297000,4.590297119140625,0.17723749577999115,-0.05953750014305115,-0.0012374999932944775
1711523599484942800,4.59994287109375,0.14313749969005585,-0.09982500225305557,-0.002474999986588955
1711523599494588700,4.609588623046875,0.11137499660253525,-0.11453749984502792,0.00494999997317791
1711523599504234500,4.619234375,0.08071249723434448,-0.12182500213384628,0.028049999848008156
1711523599513880300,4.62888037109375,0.059950001537799835,-0.10848750174045563,0.06228749826550484
1711523599523526100,4.638526123046875,0.04166249930858612,-0.10106249898672104,0.09776250272989273
1711523599533172000,4.648171875,0.023375000804662704,-0.07672499865293503,0.11728750169277191
1711523599542817800,4.65781787109375,0.008662499487400055,-0.030249999836087227,0.13199999928474426
1711523599552464000,4.6674638671875,0.0038499999791383743,0.008799999952316284,0.13557499647140503
1711523599562109700,4.677109619140625,0.00494999997317791,0.007562499959021807,0.12828749418258667
1711523599571755500,4.686755615234375,0.01484999991953373,-0.020487500354647636,0.11852499842643738
1711523599581401300,4.6964013671875,0.029424998909235,-0.06077500060200691,0.10023749619722366
1711523599591047000,4.706046875,0.052662499248981476,-0.09129999577999115,0.07699999958276749
1711523599600692700,4.715692626953125,0.07466249912977219,-0.09501250088214874,0.05128749832510948
1711523599610338800,4.7253388671875,0.10518749803304672,-0.05224999785423279,0.04028749838471413
1711523599619984600,4.734984619140625,0.13695000112056732,0.033275000751018524,0.05376249924302101
1711523599629630200,4.744630126953125,0.1601874977350235,0.10051249712705612,0.09281250089406967
1711523599639276000,4.754276123046875,0.1699499934911728,0.13461250066757202,0.14657500386238098
1711523599648921900,4.763921875,0.17242500185966492,0.1358499974012375,0.20886249840259552
1711523599658567700,4.773567626953125,0.1639000028371811,0.10175000131130219,0.26633748412132263
1711523599668213800,4.7832138671875,0.14313749969005585,0.050324998795986176,0.30428749322891235
1711523599677859600,4.792859619140625,0.11013749986886978,-0.011962499469518661,0.3091000020503998
1711523599687505400,4.80250537109375,0.07095000147819519,-0.05348749831318855,0.29438748955726624
1711523599697151200,4.812151123046875,0.03437500074505806,-0.05829999968409538,0.2675749957561493
1711523599706797000,4.821797119140625,0.008662499487400055,-0.04729999974370003,0.23086249828338623
1711523599716443000,4.83144287109375,0.0038499999791383743,-0.030249999836087227,0.18933749198913574
1711523599726088700,4.841088623046875,0.012374999932944775,-0.027775000780820847,0.1405249983072281
1711523599735734500,4.850734619140625,0.03437500074505806,-0.04729999974370003,0.08799999952316284
1711523599745380400,4.86038037109375,0.0611874982714653,-0.04729999974370003,0.030524998903274536
1711523599755026200,4.870026123046875,0.09418749809265137,-0.030249999836087227,-0.02447500079870224
1711523599764672000,4.879672119140625,0.12347500026226044,-0.0009624999947845936,-0.06599999964237213
1711523599774317800,4.88931787109375,0.15895000100135803,0.02474999986588955,-0.09157499670982361
1711523599783963600,4.898963623046875,0.18700000643730164,0.05403750017285347,-0.0952875018119812
1711523599793609200,4.908609130859375,0.19676250219345093,0.07727500051259995,-0.08428750187158585
1711523599803255300,4.91825537109375,0.18342499434947968,0.08579999953508377,-0.07328750193119049
1711523599812901000,4.927901123046875,0.15166249871253967,0.0882750004529953,-0.059812501072883606
1711523599822547000,4.937546875,0.11013749986886978,0.09308750182390213,-0.047575000673532486
1711523599832193000,4.947193115234375,0.057612501084804535,0.09184999763965607,-0.04152499884366989
1711523599841838600,4.956838623046875,0.002612499985843897,0.06627500057220459,-0.04152499884366989
1711523599851484700,4.966484619140625,-0.04386249929666519,0.028324998915195465,-0.05004999786615372
1711523599861130200,4.976130126953125,-0.06833750009536743,-0.009487500414252281,-0.06228749826550484
1711523599870776000,4.985776123046875,-0.07067500054836273,-0.02419999986886978,-0.07081250101327896
1711523599880422100,4.995422119140625,-0.04867500066757202,0.008799999952316284,-0.06833750009536743
1711523599890068000,5.00506787109375,-0.015812499448657036,0.08332499861717224,-0.057337500154972076
1711523599899713500,5.014713623046875,0.023375000804662704,0.16885000467300415,-0.047575000673532486
1711523599909359400,5.024359375,0.05389999970793724,0.24213749170303345,-0.042762499302625656
1711523599919005400,5.03400537109375,0.0611874982714653,0.2751374840736389,-0.05623750016093254
1711523599928651000,5.043651123046875,0.03437500074505806,0.2616625130176544,-0.09033749997615814
1711523599938297000,5.053297119140625,-0.020624998956918716,0.21779999136924744,-0.1307625025510788
1711523599947943000,5.06294287109375,-0.07809999585151672,0.1798499971628189,-0.15386250615119934
1711523599957588700,5.072588623046875,-0.11962500214576721,0.16885000467300415,-0.14904999732971191
1711523599967234600,5.082234619140625,-0.14643749594688416,0.17379999160766602,-0.11728750169277191
1711523599976880400,5.09188037109375,-0.16362500190734863,0.16885000467300415,-0.07576250284910202
1711523599986526200,5.101526123046875,-0.1769624948501587,0.15661250054836273,-0.035475000739097595
1711523599996172000,5.111172119140625,-0.18562500178813934,0.13832500576972961,-0.006049999967217445
1711523600005817900,5.12081787109375,-0.1929125040769577,0.11261250078678131,-0.002474999986588955
1711523600015463700,5.130463623046875,-0.20019999146461487,0.10051249712705612,-0.020762499421834946
1711523600025109500,5.140109619140625,-0.2124374955892563,0.09308750182390213,-0.059812501072883606
1711523600034755300,5.14975537109375,-0.22220000624656677,0.09184999763965607,-0.10999999940395355
1711523600044401400,5.1594013671875,-0.22714999318122864,0.08951249718666077,-0.1588124930858612
1711523600054047000,5.169046875,-0.23938749730587006,0.08703749626874924,-0.19304999709129333
1711523600063692800,5.17869287109375,-0.25148749351501465,0.09075000137090683,-0.2040500044822693
1711523600073339000,5.1883388671875,-0.2601499855518341,0.09679999947547913,-0.1966249942779541
1711523600082984700,5.197984619140625,-0.2699125111103058,0.09803749620914459,-0.1746249943971634
1711523600092630500,5.207630615234375,-0.2784374952316284,0.09679999947547913,-0.1428624987602234
1711523600102276400,5.2172763671875,-0.28696250915527344,0.08098749816417694,-0.10999999940395355
1711523600111922200,5.226922119140625,-0.29301249980926514,0.055275000631809235,-0.07823749631643295
1711523600121568000,5.236568115234375,-0.29672500491142273,0.040562499314546585,-0.04881250113248825
1711523600131213800,5.2462138671875,-0.30291250348091125,0.02722499892115593,-0.0317624993622303
1711523600140859600,5.255859619140625,-0.3114374876022339,0.013749999925494194,-0.03423750028014183
1711523600150505700,5.265505615234375,-0.32725000381469727,-0.004537499975413084,-0.057475000619888306
1711523600160151600,5.275151611328125,-0.345674991607666,-0.029012499377131462,-0.09404999762773514
1711523600169797400,5.28479736328125,-0.3577750027179718,-0.029012499377131462,-0.1368124932050705
1711523600179443000,5.29444287109375,-0.3590124845504761,-0.03396249935030937,-0.17586250603199005
1711523600189088800,5.3040888671875,-0.35048750042915344,-0.04729999974370003,-0.19552500545978546
1711523600198734600,5.313734619140625,-0.3260124921798706,-0.06806249916553497,-0.18562500178813934
1711523600208380400,5.32338037109375,-0.29548749327659607,-0.09006249904632568,-0.15152500569820404
1711523600218026500,5.333026611328125,-0.27114999294281006,-0.11577499657869339,-0.10628750175237656
1711523600227672000,5.342672119140625,-0.2576749920845032,-0.12925000488758087,-0.054999999701976776
1711523600237318100,5.352318115234375,-0.2624875009059906,-0.1280124932527542,-0.01347499992698431
1711523600246963700,5.361963623046875,-0.28091248869895935,-0.1280124932527542,0.01952499896287918
1711523600256609500,5.371609619140625,-0.30524998903274536,-0.1317249983549118,0.04647500067949295
1711523600266255600,5.381255615234375,-0.3236750066280365,-0.147537499666214,0.06228749826550484
1711523600275901200,5.390901123046875,-0.3419624865055084,-0.1732500046491623,0.07452499866485596
1711523600285547000,5.400547119140625,-0.35420000553131104,-0.19882500171661377,0.08071249723434448
1711523600295193000,5.410193115234375,-0.3675374984741211,-0.22453749179840088,0.07452499866485596
1711523600304839000,5.4198388671875,-0.37853750586509705,-0.24529999494552612,0.06476250290870667
1711523600314484700,5.429484619140625,-0.37619999051094055,-0.24406249821186066,0.05252499878406525
1711523600324130800,5.439130859375,-0.36643749475479126,-0.23058749735355377,0.037950001657009125
1711523600333776600,5.448776611328125,-0.3554374873638153,-0.2050125002861023,0.032999999821186066
1711523600343422200,5.458422119140625,-0.3431999981403351,-0.179299995303154,0.03904999792575836
1711523600353068000,5.468068115234375,-0.3431999981403351,-0.1658249944448471,0.047712501138448715
1711523600362713900,5.4777138671875,-0.3577750027179718,-0.15606249868869781,0.05871250107884407
1711523600372359700,5.487359619140625,-0.38472500443458557,-0.15125000476837158,0.08071249723434448
1711523600382005800,5.497005859375,-0.42377498745918274,-0.16101250052452087,0.11852499842643738
1711523600391651600,5.506651611328125,-0.47382500767707825,-0.2012999951839447,0.16128750145435333
1711523600401297400,5.51629736328125,-0.5092999935150146,-0.258774995803833,0.19676250219345093
1711523600410943200,5.525943115234375,-0.511775016784668,-0.30153748393058777,0.23086249828338623
1711523600420589000,5.535589111328125,-0.4787749946117401,-0.3148750066757202,0.2700499892234802
1711523600430235100,5.545235107421875,-0.4164874851703644,-0.29534998536109924,0.31404998898506165
1711523600439880700,5.554880615234375,-0.33096250891685486,-0.2525874972343445,0.3568125069141388
1711523600449526500,5.564526611328125,-0.2503874897956848,-0.20377500355243683,0.37014999985694885
1711523600459172400,5.57417236328125,-0.20019999146461487,-0.179299995303154,0.329862505197525
1711523600468818200,5.583818115234375,-0.17943750321865082,-0.16706250607967377,0.2615250051021576
1711523600478464000,5.593464111328125,-0.17586250603199005,-0.1597750037908554,0.1905750036239624
1711523600488109800,5.60310986328125,-0.18438750505447388,-0.1634874939918518,0.14300000667572021
1711523600497755600,5.612755615234375,-0.19772499799728394,-0.1695374995470047,0.13199999928474426
1711523600507401500,5.6224013671875,-0.202674999833107,-0.15729999542236328,0.16609999537467957
1711523600517047600,5.632047607421875,-0.20143750309944153,-0.1280124932527542,0.24186250567436218
1711523600526693400,5.641693359375,-0.1891999989748001,-0.09982500225305557,0.34581249952316284
1711523600536339200,5.651339111328125,-0.17943750321865082,-0.09872499853372574,0.44714999198913574
1711523600545985000,5.660985107421875,-0.1891999989748001,-0.147537499666214,0.5081999897956848
1711523600555630800,5.670630859375,-0.21615000069141388,-0.21353749930858612,0.5143874883651733
1711523600565276700,5.680276611328125,-0.24791249632835388,-0.267300009727478,0.467912495136261
1711523600574922500,5.689922607421875,-0.2747249901294708,-0.29782500863075256,0.3763374984264374
1711523600584568300,5.699568359375,-0.2881999909877777,-0.29411250352859497,0.25657498836517334
1711523600594214100,5.709214111328125,-0.2844874858856201,-0.24777500331401825,0.13323749601840973
1711523600603860000,5.71885986328125,-0.25891250371932983,-0.1695374995470047,0.02928750030696392
1711523600613506000,5.728506103515625,-0.20762500166893005,-0.08772499859333038,-0.05252499878406525
1711523600623151900,5.73815185546875,-0.1451999992132187,-0.013199999928474426,-0.1050499975681305
1711523600632798000,5.7477978515625,-0.08415000140666962,0.03451250120997429,-0.12457499653100967
1711523600642443500,5.757443603515625,-0.027912499383091927,0.055275000631809235,-0.12209999561309814
1711523600652089600,5.767089599609375,0.015949999913573265,0.03451250120997429,-0.10009999573230743
1711523600661735400,5.7767353515625,0.03918749839067459,-0.013199999928474426,-0.06599999964237213
1711523600671381200,5.78638134765625,0.045375000685453415,-0.0742499977350235,-0.010999999940395355
1711523600681026800,5.79602685546875,0.05389999970793724,-0.13048750162124634,0.05871250107884407
1711523600690672600,5.805672607421875,0.06366249918937683,-0.1634874939918518,0.12828749418258667
1711523600700318700,5.815318603515625,0.07947500050067902,-0.16830000281333923,0.17599999904632568
1711523600709964300,5.82496435546875,0.09542500227689743,-0.14877499639987946,0.18328750133514404
1711523600719610400,5.8346103515625,0.12347500026226044,-0.10724999755620956,0.15633749961853027
1711523600729256200,5.844256103515625,0.16142499446868896,-0.04729999974370003,0.11123749613761902
1711523600738902000,5.853902099609375,0.20666250586509705,0.003987499978393316,0.05623750016093254
1711523600748547800,5.8635478515625,0.2529999911785126,0.047987498342990875,0.0085249999538064
1711523600758193700,5.873193603515625,0.28476250171661377,0.08208750188350677,-0.03423750028014183
1711523600767839500,5.882839599609375,0.29218751192092896,0.08951249718666077,-0.07204999774694443
1711523600777485300,5.8924853515625,0.27623748779296875,0.07479999959468842,-0.0952875018119812
1711523600787131100,5.902131103515625,0.2457125037908554,0.052799999713897705,-0.1050499975681305
1711523600796777200,5.911777099609375,0.20542499423027039,0.02474999986588955,-0.10876250267028809
1711523600806422800,5.9214228515625,0.17242500185966492,-0.0057749999687075615,-0.11110000312328339
1711523600816068600,5.931068603515625,0.1504250019788742,-0.008249999955296516,-0.10752499848604202
1711523600825714400,5.94071435546875,0.1467124968767166,0.01732499897480011,-0.10381250083446503
1711523600835360300,5.9503603515625,0.16499999165534973,0.056512501090765,-0.10257499665021896
1711523600845006300,5.96000634765625,0.20776249468326569,0.11027500033378601,-0.1013374999165535
1711523600854652200,5.969652099609375,0.2615250051021576,0.16403749585151672,-0.1050499975681305
1711523600864298200,5.97929833984375,0.3092375099658966,0.21285000443458557,-0.11481250077486038
1711523600873943800,5.98894384765625,0.344712495803833,0.24213749170303345,-0.12581250071525574
1711523600883590000,5.99858984375,0.36176249384880066,0.23980000615119934,-0.13928750157356262
1711523600893235700,6.008235595703125,0.3605250120162964,0.23732499778270721,-0.1405249983072281
1711523600902881500,6.017881591796875,0.3482874929904938,0.24461250007152557,-0.13805000483989716
1711523600912527400,6.02752734375,0.3227125108242035,0.23237499594688416,-0.1428624987602234
1711523600922173200,6.037173095703125,0.2909500002861023,0.20432500541210175,-0.15152500569820404
1711523600931819000,6.046819091796875,0.25423750281333923,0.16637499630451202,-0.1648624986410141
1711523600941464800,6.05646484375,0.2199999988079071,0.1297999918460846,-0.18081249296665192
1711523600951110400,6.0661103515625,0.19318750500679016,0.10408750176429749,-0.19304999709129333
1711523600960756500,6.075756591796875,0.17489999532699585,0.10408750176429749,-0.2063875049352646
1711523600970402600,6.085402587890625,0.17366249859333038,0.12251249700784683,-0.2162874937057495
1711523600980048400,6.09504833984375,0.18700000643730164,0.13956250250339508,-0.2283875048160553
1711523600989694000,6.10469384765625,0.21271249651908875,0.15661250054836273,-0.23938749730587006
1711523600999339800,6.11433984375,0.24323749542236328,0.16885000467300415,-0.25905001163482666
1711523601008985600,6.123985595703125,0.27623748779296875,0.16885000467300415,-0.28833749890327454
1711523601018631400,6.13363134765625,0.3030500113964081,0.1518000066280365,-0.329862505197525
1711523601028277500,6.143277587890625,0.32147499918937683,0.12127500027418137,-0.3713875114917755
1711523601037923300,6.15292333984375,0.3250499963760376,0.09184999763965607,-0.4031499922275543
1711523601047569200,6.162569091796875,0.31652501225471497,0.06627500057220459,-0.41538751125335693
1711523601057215000,6.172215087890625,0.30428749322891235,0.05898749828338623,-0.39943748712539673
1711523601066860800,6.18186083984375,0.28971248865127563,0.056512501090765,-0.36162498593330383
1711523601076507000,6.1915068359375,0.2712875008583069,0.04675000160932541,-0.31033748388290405
1711523601086152700,6.201152587890625,0.25671249628067017,0.035750001668930054,-0.2601499855518341
1711523601095798500,6.210798583984375,0.23952500522136688,0.03451250120997429,-0.21738749742507935
1711523601105444400,6.2204443359375,0.2199999988079071,0.04179999977350235,-0.1845249980688095
1711523601115090200,6.230090087890625,0.19923749566078186,0.05403750017285347,-0.1527625024318695
1711523601124736000,6.239736083984375,0.1821874976158142,0.08703749626874924,-0.11852499842643738
1711523601134381800,6.2493818359375,0.1699499934911728,0.11384999752044678,-0.08304999768733978
1711523601144028000,6.25902783203125,0.1601874977350235,0.12127500027418137,-0.054999999701976776
1711523601153673700,6.268673828125,0.1601874977350235,0.12251249700784683,-0.02447500079870224
1711523601163319300,6.2783193359375,0.1699499934911728,0.1297999918460846,0.00976249948143959
1711523601172965000,6.287965087890625,0.1821874976158142,0.13708749413490295,0.05004999786615372
1711523601182611200,6.297611083984375,0.18576249480247498,0.14079999923706055,0.10147500038146973
1711523601192257000,6.307257080078125,0.18576249480247498,0.15427500009536743,0.16499999165534973
1711523601201902800,6.31690283203125,0.18466250598430634,0.14451250433921814,0.22852499783039093
1711523601211548700,6.326548583984375,0.1882375031709671,0.12484999746084213,0.27486249804496765
1711523601221194500,6.336194580078125,0.18342499434947968,0.10051249712705612,0.28462499380111694
1711523601230840300,6.34584033203125,0.17971250414848328,0.05898749828338623,0.2516250014305115
1711523601240486100,6.355486083984375,0.1821874976158142,0.030799999833106995,0.18700000643730164
1711523601250132000,6.365132080078125,0.1882375031709671,0.040562499314546585,0.11481250077486038
1711523601259777800,6.37477783203125,0.18947499990463257,0.08332499861717224,0.0635249987244606
1711523601269423600,6.384423583984375,0.18095000088214874,0.12732499837875366,0.04028749838471413
1711523601279069400,6.3940693359375,0.16871249675750732,0.15908749401569366,0.05004999786615372
1711523601288715500,6.403715576171875,0.1504250019788742,0.16403749585151672,0.08552499860525131
1711523601298361300,6.413361328125,0.1321374922990799,0.13708749413490295,0.14176249504089355
1711523601308007200,6.423007080078125,0.10518749803304672,0.09556250274181366,0.20157499611377716
1711523601317653000,6.432653076171875,0.07713750004768372,0.025987500324845314,0.25286251306533813
1711523601327298800,6.442298828125,0.050187498331069946,-0.0424874983727932,0.28228750824928284
1711523601336944600,6.451944580078125,0.033137500286102295,-0.09624999761581421,0.28462499380111694
1711523601346590500,6.461590576171875,0.030662499368190765,-0.12430000305175781,0.2700499892234802
1711523601356236300,6.471236328125,0.035612501204013824,-0.1438249945640564,0.23952500522136688
1711523601365882000,6.480882080078125,0.04895000159740448,-0.1695374995470047,0.19910000264644623
1711523601375528000,6.49052783203125,0.059950001537799835,-0.1695374995470047,0.15028749406337738
1711523601385174000,6.500174072265625,0.07218749821186066,-0.1340624988079071,0.10752499848604202
1711523601394820000,6.509820068359375,0.08689999580383301,-0.09377499669790268,0.0672374963760376
1711523601404465700,6.519465576171875,0.11013749986886978,-0.05719999969005585,0.04152499884366989
1711523601414111500,6.529111572265625,0.1381874978542328,-0.014437500387430191,0.03904999792575836
1711523601423757300,6.53875732421875,0.1699499934911728,0.03451250120997429,0.07204999774694443
1711523601433403100,6.548403076171875,0.19318750500679016,0.06379999965429306,0.12457499653100967
1711523601443049200,6.55804931640625,0.20418749749660492,0.06132499873638153,0.17599999904632568
1711523601452694800,6.56769482421875,0.21642500162124634,0.050324998795986176,0.22728750109672546
1711523601462340900,6.5773408203125,0.22247499227523804,0.03932499885559082,0.2761000096797943
1711523601471986700,6.586986572265625,0.2102375030517578,0.03698749840259552,0.3250499963760376
1711523601481632500,6.596632568359375,0.18947499990463257,0.03451250120997429,0.36038750410079956
1711523601491278300,6.6062783203125,0.1639000028371811,0.007562499959021807,0.37386250495910645
1711523601500924200,6.615924072265625,0.14190000295639038,-0.0057749999687075615,0.37386250495910645
1711523601510570200,6.6255703125,0.12718750536441803,-0.01677500084042549,0.3689124882221222
1711523601520216000,6.635216064453125,0.11742500215768814,-0.025437500327825546,0.35186249017715454
1711523601529862000,6.64486181640625,0.11247500032186508,-0.027775000780820847,0.3250499963760376
1711523601539507700,6.6545078125,0.09418749809265137,-0.018012499436736107,0.2870999872684479
1711523601549153500,6.664153564453125,0.0611874982714653,0.011274999938905239,0.2358125001192093
1711523601558799400,6.67379931640625,0.020899999886751175,0.04179999977350235,0.17833749949932098
1711523601568445200,6.683445068359375,-0.01691249944269657,0.04908749833703041,0.12347500026226044
1711523601578091300,6.69309130859375,-0.05362499877810478,0.04179999977350235,0.06476250290870667
1711523601587737000,6.702737060546875,-0.09143749624490738,0.007562499959021807,0.01952499896287918
1711523601597383000,6.7123828125,-0.12209999561309814,-0.0364375002682209,-0.020762499421834946
1711523601607028700,6.72202880859375,-0.14891250431537628,-0.09253749996423721,-0.0672374963760376
1711523601616674600,6.731674560546875,-0.170912504196167,-0.1438249945640564,-0.12209999561309814
1711523601626320400,6.7413203125,-0.18438750505447388,-0.15729999542236328,-0.18081249296665192
1711523601635966200,6.75096630859375,-0.18314999341964722,-0.11948750168085098,-0.24557499587535858
1711523601645612000,6.760612060546875,-0.16596250236034393,-0.06929999589920044,-0.3139125108718872
1711523601655257900,6.7702578125,-0.1293874979019165,-0.020487500354647636,-0.3653374910354614
1711523601664903700,6.779903564453125,-0.07438749819993973,0.033275000751018524,-0.38843750953674316
1711523601674549800,6.7895498046875,-0.010862499475479126,0.07356250286102295,-0.37386250495910645
1711523601684195600,6.799195556640625,0.05389999970793724,0.07727500051259995,-0.33233749866485596
1711523601693841400,6.80884130859375,0.10037499666213989,0.045512501150369644,-0.2798124849796295
1711523601703487200,6.8184873046875,0.11990000307559967,-0.009487500414252281,-0.22962500154972076
1711523601713133000,6.828133056640625,0.10889999568462372,-0.06696250289678574,-0.1905750036239624
1711523601722779100,6.837779052734375,0.07947500050067902,-0.10724999755620956,-0.1588124930858612
1711523601732425000,6.847425048828125,0.04413750022649765,-0.12196250259876251,-0.13186250627040863
1711523601742070800,6.85707080078125,0.00494999997317791,-0.11329999566078186,-0.11357499659061432
1711523601751716600,6.866716552734375,-0.035337500274181366,-0.09748750180006027,-0.10999999940395355
1711523601761362400,6.876362548828125,-0.08043749630451202,-0.08153750002384186,-0.12209999561309814
1711523601771008300,6.88600830078125,-0.12319999933242798,-0.07672499865293503,-0.14533749222755432
1711523601780653800,6.89565380859375,-0.1574375033378601,-0.0681999996304512,-0.1746249943971634
1711523601790300000,6.9052998046875,-0.17586250603199005,-0.06077500060200691,-0.2063875049352646
1711523601799945700,6.91494580078125,-0.18314999341964722,-0.04372499883174896,-0.23704999685287476
1711523601809591800,6.924591796875,-0.17586250603199005,-0.015537500381469727,-0.2578125
1711523601819237600,6.934237548828125,-0.15867500007152557,0.01979999989271164,-0.2638624906539917
1711523601828883500,6.943883544921875,-0.1354375034570694,0.04908749833703041,-0.25533750653266907
1711523601838529300,6.953529296875,-0.11467500030994415,0.07479999959468842,-0.23457500338554382
1711523601848175000,6.963175048828125,-0.09886249899864197,0.07479999959468842,-0.2040500044822693
1711523601857821000,6.972821044921875,-0.09033749997615814,0.047987498342990875,-0.16733749210834503
1711523601867466800,6.982466796875,-0.08662500232458115,0.011274999938905239,-0.12952500581741333
1711523601877112600,6.992112548828125,-0.09391249716281891,-0.030249999836087227,-0.09776250272989273
1711523601886758400,7.00175830078125,-0.1073874980211258,-0.06324999779462814,-0.07204999774694443
1711523601896404500,7.011404541015625,-0.1293874979019165,-0.09624999761581421,-0.05252499878406525
1711523601906050300,7.02105029296875,-0.15138749778270721,-0.12430000305175781,-0.03423750028014183
1711523601915695900,7.03069580078125,-0.16843749582767487,-0.1317249983549118,-0.004812499973922968
1711523601925341700,7.040341796875,-0.18438750505447388,-0.13529999554157257,0.025712499395012856
1711523601934987800,7.04998779296875,-0.19167499244213104,-0.13653749227523804,0.06228749826550484
1711523601944633600,7.059633544921875,-0.1966249942779541,-0.12072499841451645,0.10257499665021896
1711523601954279400,7.069279541015625,-0.20019999146461487,-0.1023000031709671,0.1307625025510788
1711523601963925200,7.07892529296875,-0.19772499799728394,-0.08896250277757645,0.14423750340938568
1711523601973571000,7.088571044921875,-0.19415000081062317,-0.08030000329017639,0.1405249983072281
1711523601983217000,7.098216796875,-0.19415000081062317,-0.07919999957084656,0.12581250071525574
1711523601992862700,7.10786279296875,-0.202674999833107,-0.06696250289678574,0.09776250272989273
1711523602002508800,7.1175087890625,-0.2186249941587448,-0.06696250289678574,0.05623750016093254
1711523602012154600,7.127154541015625,-0.23938749730587006,-0.08772499859333038,0.01223750039935112
1711523602021800700,7.13680078125,-0.26372501254081726,-0.1317249983549118,-0.0012374999932944775
1711523602031446500,7.146446533203125,-0.282150000333786,-0.16830000281333923,0.04152499884366989
1711523602041092400,7.15609228515625,-0.2881999909877777,-0.195250004529953,0.1270499974489212
1711523602050738200,7.16573828125,-0.28696250915527344,-0.2293500006198883,0.21504999697208405
1711523602060384000,7.175384033203125,-0.2686749994754791,-0.267300009727478,0.28228750824928284
1711523602070029800,7.18502978515625,-0.2527250051498413,-0.28806251287460327,0.3152875006198883
1711523602079675600,7.194675537109375,-0.24296249449253082,-0.2733500003814697,0.3115749955177307
1711523602089321500,7.204321533203125,-0.23567499220371246,-0.2367749959230423,0.27857500314712524
1711523602098967300,7.21396728515625,-0.22220000624656677,-0.18906250596046448,0.22852499783039093
1711523602108613400,7.22361328125,-0.202674999833107,-0.1414874941110611,0.1722874939441681
1711523602118259200,7.23325927734375,-0.16596250236034393,-0.08896250277757645,0.12581250071525574
1711523602127905000,7.242905029296875,-0.12443749606609344,-0.03396249935030937,0.09652499854564667
1711523602137550800,7.25255078125,-0.09143749624490738,0.008799999952316284,0.07823749631643295
1711523602147196700,7.26219677734375,-0.07809999585151672,0.016087500378489494,0.0635249987244606
1711523602156842500,7.271842529296875,-0.07809999585151672,0.006324999965727329,0.059950001537799835
1711523602166488300,7.28148828125,-0.07933750003576279,-0.025437500327825546,0.06971249729394913
1711523602176134100,7.291134033203125,-0.07562500238418579,-0.09872499853372574,0.09047500044107437
1711523602185780200,7.3007802734375,-0.07315000146627426,-0.18658749759197235,0.11604999750852585
1711523602195426000,7.310426025390625,-0.07067500054836273,-0.24777500331401825,0.13557499647140503
1711523602205072000,7.32007177734375,-0.0695749968290329,-0.2733500003814697,0.14300000667572021
1711523602214718000,7.329718017578125,-0.06462500244379044,-0.2513499855995178,0.1368124932050705
1711523602224363500,7.339363525390625,-0.05362499877810478,-0.20006249845027924,0.12457499653100967
1711523602234009300,7.34900927734375,-0.04386249929666519,-0.1280124932527542,0.11247500032186508
1711523602243655200,7.3586552734375,-0.030387500301003456,-0.04001250118017197,0.11247500032186508
1711523602253301000,7.368301025390625,-0.010862499475479126,0.057750001549720764,0.1344749927520752
1711523602262947000,7.377947021484375,0.01484999991953373,0.15661250054836273,0.17957499623298645
1711523602272593000,7.387593017578125,0.028187500312924385,0.23856249451637268,0.22852499783039093
1711523602282239000,7.397239013671875,0.01718750037252903,0.2666124999523163,0.26510000228881836
1711523602291884800,7.406884765625,-0.01209999993443489,0.25561249256134033,0.29438748955726624
1711523602301530600,7.416530517578125,-0.05115000158548355,0.21889999508857727,0.30662500858306885
1711523602311176200,7.42617626953125,-0.1013374999165535,0.17256249487400055,0.31033748388290405
1711523602320822000,7.435822021484375,-0.14767499268054962,0.12484999746084213,0.3078624904155731
1711523602330468000,7.445468017578125,-0.1868624985218048,0.0906125009059906,0.2932874858379364
1711523602340114000,7.455114013671875,-0.1989624947309494,0.0845625028014183,0.26881250739097595
1711523602349759700,7.464759765625,-0.1868624985218048,0.10656250268220901,0.24076250195503235
1711523602359405600,7.474405517578125,-0.16362500190734863,0.14685000479221344,0.20157499611377716
1711523602369051400,7.484051513671875,-0.1354375034570694,0.1896124929189682,0.14423750340938568
1711523602378697200,7.493697265625,-0.11110000312328339,0.2116124927997589,0.0635249987244606
1711523602388343000,7.503343017578125,-0.10009999573230743,0.2116124927997589,-0.02928750030696392
1711523602397988900,7.51298876953125,-0.11343749612569809,0.20184999704360962,-0.12086249887943268
1711523602407634700,7.522634765625,-0.1354375034570694,0.18603749573230743,-0.19538749754428864
1711523602417280800,7.53228076171875,-0.15619999170303345,0.15661250054836273,-0.24914999306201935
1711523602426926600,7.541926513671875,-0.16596250236034393,0.12484999746084213,-0.28091248869895935
1711523602436572700,7.55157275390625,-0.16843749582767487,0.08579999953508377,-0.2956250011920929
1711523602446218500,7.561218505859375,-0.15991249680519104,0.057750001549720764,-0.29809999465942383
1711523602455864300,7.5708642578125,-0.1428624987602234,0.057750001549720764,-0.2870999872684479
1711523602465510100,7.58051025390625,-0.1256749927997589,0.056512501090765,-0.27857500314712524
1711523602475156000,7.590156005859375,-0.1013374999165535,0.057750001549720764,-0.2638624906539917
1711523602484801800,7.5998017578125,-0.06091250106692314,0.0882750004529953,-0.23333749175071716
1711523602494447600,7.609447509765625,-0.014574999921023846,0.1260875016450882,-0.19910000264644623
1711523602504093400,7.619093505859375,0.025849999859929085,0.1443749964237213,-0.1746249943971634
1711523602513739300,7.6287392578125,0.052662499248981476,0.13227500021457672,-0.16005000472068787
1711523602523385000,7.638385009765625,0.07095000147819519,0.11261250078678131,-0.14781250059604645
1711523602533031000,7.648031005859375,0.08566249907016754,0.0906125009059906,-0.13928750157356262
1711523602542677000,7.657677001953125,0.07947500050067902,0.04908749833703041,-0.14904999732971191
1711523602552323000,7.667322998046875,0.06366249918937683,0.010037500411272049,-0.1685750037431717
1711523602561969000,7.676968994140625,0.04166249930858612,-0.002199999988079071,-0.18081249296665192
1711523602571614700,7.68661474609375,0.02461249940097332,0.0015124999918043613,-0.17957499623298645
1711523602581260300,7.69626025390625,0.01966249942779541,0.008799999952316284,-0.1722874939441681
1711523602590906400,7.70590625,0.029424998909235,0.0015124999918043613,-0.1625249981880188
1711523602600552000,7.715552001953125,0.045375000685453415,-0.013199999928474426,-0.15152500569820404
1711523602610198000,7.725197998046875,0.05871250107884407,-0.025437500327825546,-0.1428624987602234
1711523602619843800,7.73484375,0.08071249723434448,-0.03753750026226044,-0.1331000030040741
1711523602629490000,7.744489990234375,0.10518749803304672,-0.04496249929070473,-0.11976250261068344
1711523602639135700,7.7541357421875,0.12718750536441803,-0.03519999980926514,-0.10257499665021896
1711523602648781600,7.763781494140625,0.14547500014305115,-0.026537500321865082,-0.09157499670982361
1711523602658427400,7.773427490234375,0.16142499446868896,-0.021724998950958252,-0.08910000324249268
1711523602668073200,7.7830732421875,0.17476250231266022,-0.020487500354647636,-0.09033749997615814
1711523602677719000,7.792718994140625,0.1882375031709671,-0.015675000846385956,-0.09404999762773514
1711523602687364900,7.80236474609375,0.20047499239444733,-0.009487500414252281,-0.10009999573230743
1711523602697010700,7.8120107421875,0.20418749749660492,0.002749999985098839,-0.09776250272989273
1711523602706656800,7.82165673828125,0.19923749566078186,0.025987500324845314,-0.08552499860525131
1711523602716302800,7.831302734375,0.1919499933719635,0.035750001668930054,-0.06228749826550484
1711523602725948400,7.840948486328125,0.1821874976158142,0.028324998915195465,-0.02928750030696392
1711523602735594200,7.85059423828125,0.17366249859333038,0.02474999986588955,0.015949999913573265
1711523602745240000,7.860239990234375,0.16499999165534973,0.011274999938905239,0.0672374963760376
1711523602754886000,7.869885986328125,0.15523749589920044,-0.026537500321865082,0.09776250272989273
1711523602764532000,7.879531982421875,0.15166249871253967,-0.07919999957084656,0.10999999940395355
1711523602774177800,7.889177734375,0.14423750340938568,-0.11453749984502792,0.10876250267028809
1711523602783823600,7.89882373046875,0.1381874978542328,-0.1340624988079071,0.09281250089406967
1711523602793469400,7.908469482421875,0.1381874978542328,-0.12677499651908875,0.07081250101327896
1711523602803115300,7.918115234375,0.14423750340938568,-0.09748750180006027,0.05004999786615372
1711523602812761000,7.927760986328125,0.14547500014305115,-0.0644875019788742,0.03671250119805336
1711523602822407200,7.9374072265625,0.13942499458789825,-0.03753750026226044,0.02694999985396862
1711523602832053200,7.94705322265625,0.12966249883174896,-0.029012499377131462,0.023237500339746475
1711523602841699000,7.956698974609375,0.13089999556541443,-0.014437500387430191,0.04028749838471413
1711523602851345000,7.966344970703125,0.15289999544620514,0.01732499897480011,0.08071249723434448
1711523602860990500,7.975990478515625,0.18342499434947968,0.043037500232458115,0.13199999928474426
1711523602870636300,7.98563623046875,0.20776249468326569,0.04427500069141388,0.17352500557899475
1711523602880282400,7.995282470703125,0.21752500534057617,0.01251249946653843,0.18205000460147858
1711523602889928000,8.004927978515624,0.20418749749660492,-0.030249999836087227,0.15633749961853027
1711523602899574000,8.014573974609375,0.17242500185966492,-0.04372499883174896,0.11247500032186508
1711523602909220000,8.02422021484375,0.13323749601840973,-0.027775000780820847,0.07328750193119049
1711523602918866000,8.033865966796874,0.10147500038146973,-0.0034374999813735485,0.057475000619888306
1711523602928511700,8.04351171875,0.08195000141859055,0.0002749999985098839,0.059950001537799835
1711523602938157600,8.053157470703125,0.07342500239610672,-0.022962499409914017,0.0672374963760376
1711523602947803400,8.062803466796876,0.07466249912977219,-0.05472499877214432,0.06847500056028366
1711523602957449200,8.07244921875,0.07466249912977219,-0.08277499675750732,0.05871250107884407
1711523602967095000,8.082094970703125,0.07713750004768372,-0.09253749996423721,0.037950001657009125
1711523602976740900,8.091740966796875,0.07713750004768372,-0.07672499865293503,0.010999999940395355
1711523602986387000,8.101386962890626,0.08071249723434448,-0.05224999785423279,-0.02447500079870224
1711523602996032800,8.11103271484375,0.08442500233650208,-0.029012499377131462,-0.057337500154972076
1711523603005678800,8.120678955078125,0.09542500227689743,-0.0009624999947845936,-0.07081250101327896
1711523603015324700,8.13032470703125,0.12347500026226044,0.02474999986588955,-0.06104999780654907
1711523603024970500,8.139970458984376,0.1601874977350235,0.052799999713897705,-0.032999999821186066
1711523603034616300,8.1496162109375,0.20899999141693115,0.0845625028014183,0.007287499960511923
1711523603044262000,8.159261962890625,0.2579500079154968,0.1223749965429306,0.05623750016093254
1711523603053908000,8.168907958984375,0.29823750257492065,0.142037495970726,0.10147500038146973
1711523603063553800,8.1785537109375,0.32999998331069946,0.142037495970726,0.13928750157356262
1711523603073199600,8.18819970703125,0.3482874929904938,0.1200374960899353,0.16376249492168427
1711523603082845400,8.197845458984375,0.3507624864578247,0.09308750182390213,0.17833749949932098
1711523603092491300,8.2074912109375,0.34581249952316284,0.07603749632835388,0.19181250035762787
1711523603102137600,8.2171376953125,0.33976250886917114,0.057750001549720764,0.1979999989271164
1711523603111783400,8.226783447265625,0.3287625014781952,0.02708750031888485,0.19676250219345093
1711523603121429200,8.23642919921875,0.3152875006198883,-0.01677500084042549,0.18809999525547028
1711523603131074800,8.24607470703125,0.30799999833106995,-0.05843750014901161,0.17723749577999115
1711523603140720600,8.255720703125,0.2932874858379364,-0.0742499977350235,0.16981250047683716
1711523603150366700,8.26536669921875,0.26647499203681946,-0.05348749831318855,0.16499999165534973
1711523603160012500,8.275012451171875,0.23100000619888306,-0.018012499436736107,0.1625249981880188
1711523603169658400,8.284658447265626,0.1979999989271164,0.023512499406933784,0.16128750145435333
1711523603179304200,8.29430419921875,0.16142499446868896,0.05884999781847,0.1527625024318695
1711523603188950000,8.303949951171875,0.12718750536441803,0.07232499867677689,0.12828749418258667
1711523603198596000,8.31359619140625,0.10766249895095825,0.057750001549720764,0.08923749625682831
1711523603208242000,8.323241943359376,0.08937499672174454,0.016087500378489494,0.035475000739097595
1711523603217887700,8.3328876953125,0.07713750004768372,-0.04743750020861626,-0.028049999848008156
1711523603227533600,8.342533447265625,0.062424998730421066,-0.1097249984741211,-0.09776250272989273
1711523603237179400,8.352179443359375,0.045375000685453415,-0.14024999737739563,-0.1588124930858612
1711523603246825200,8.3618251953125,0.03671250119805336,-0.11453749984502792,-0.1966249942779541
1711523603256471300,8.37147119140625,0.04166249930858612,-0.04743750020861626,-0.21615000069141388
1711523603266117400,8.381117431640625,0.05871250107884407,0.018562499433755875,-0.2223374992609024
1711523603275763200,8.39076318359375,0.07218749821186066,0.06861250102519989,-0.21133749186992645
1711523603285408800,8.40040869140625,0.08813749998807907,0.08951249718666077,-0.18933749198913574
1711523603295054800,8.410054931640625,0.0966624990105629,0.06861250102519989,-0.16733749210834503
1711523603304700700,8.41970068359375,0.0966624990105629,0.011274999938905239,-0.15262499451637268
1711523603314346500,8.429346435546876,0.08937499672174454,-0.05224999785423279,-0.1368124932050705
1711523603323992300,8.438992431640624,0.07837499678134918,-0.08277499675750732,-0.11110000312328339
1711523603333638100,8.44863818359375,0.06737499684095383,-0.1023000031709671,-0.09033749997615814
1711523603343284000,8.458283935546875,0.05389999970793724,-0.13296249508857727,-0.07809999585151672
1711523603352930000,8.467929931640626,0.047712501138448715,-0.15482500195503235,-0.0695749968290329
1711523603362576000,8.477575927734375,0.03918749839067459,-0.16224999725818634,-0.07452499866485596
1711523603372222000,8.487221923828125,0.02694999985396862,-0.16224999725818634,-0.09776250272989273
1711523603381867800,8.49686767578125,0.012374999932944775,-0.15125000476837158,-0.1331000030040741
1711523603391513600,8.506513671875,-0.0035749999806284904,-0.12677499651908875,-0.1746249943971634
1711523603401159200,8.5161591796875,-0.015812499448657036,-0.09501250088214874,-0.2186249941587448
1711523603410805200,8.52580517578125,-0.02433750033378601,-0.06324999779462814,-0.25286251306533813
1711523603420451000,8.535451171875,-0.025575000792741776,-0.0364375002682209,-0.27486249804496765
1711523603430097200,8.54509716796875,-0.02433750033378601,-0.021724998950958252,-0.282150000333786
1711523603439742700,8.55474267578125,-0.02914999984204769,-0.018012499436736107,-0.28338751196861267
1711523603449388500,8.564388427734375,-0.03657500073313713,-0.008249999955296516,-0.273624986410141
1711523603459034600,8.57403466796875,-0.045099999755620956,0.0002749999985098839,-0.25286251306533813
1711523603468680400,8.583680419921874,-0.05857500061392784,-0.0057749999687075615,-0.2283875048160553
1711523603478326300,8.593326171875,-0.0719124972820282,-0.03272499889135361,-0.20528750121593475
1711523603487972000,8.60297216796875,-0.08291249722242355,-0.05348749831318855,-0.17710000276565552
1711523603497618200,8.6126181640625,-0.08662500232458115,-0.04977500066161156,-0.14533749222755432
1711523603507264000,8.622263916015624,-0.07933750003576279,-0.04496249929070473,-0.11728750169277191
1711523603516909800,8.631909912109375,-0.06462500244379044,-0.05224999785423279,-0.09652499854564667
1711523603526555600,8.6415556640625,-0.04633750021457672,-0.04496249929070473,-0.07452499866485596
1711523603536201500,8.651201416015626,-0.032862499356269836,-0.025437500327825546,-0.045237500220537186
1711523603545847600,8.66084765625,-0.02433750033378601,-0.011962499469518661,-0.014574999921023846
1711523603555493400,8.670493408203125,-0.025575000792741776,-0.014437500387430191,0.01347499992698431
1711523603565139200,8.68013916015625,-0.03891250118613243,-0.03148749843239784,0.03423750028014183
1711523603574785000,8.689784912109374,-0.0658624991774559,-0.05101250112056732,0.04647500067949295
1711523603584430800,8.699430908203125,-0.09638749808073044,-0.07301250100135803,0.04895000159740448
1711523603594076700,8.70907666015625,-0.12691250443458557,-0.09377499669790268,0.045237500220537186
1711523603603722500,8.718722412109376,-0.15386250615119934,-0.12072499841451645,0.04399999976158142
1711523603613368300,8.728368408203124,-0.17586250603199005,-0.1377750039100647,0.03918749839067459
1711523603623014400,8.738014404296875,-0.1929125040769577,-0.15729999542236328,0.025712499395012856
1711523603632660200,8.74766015625,-0.20514999330043793,-0.15729999542236328,-0.0012374999932944775
1711523603642306300,8.757306396484376,-0.2186249941587448,-0.15125000476837158,-0.037812501192092896
1711523603651952000,8.7669521484375,-0.2307250052690506,-0.13048750162124634,-0.08181250095367432
1711523603661598000,8.776597900390625,-0.24543750286102295,-0.12553749978542328,-0.12086249887943268
1711523603671243800,8.786243896484375,-0.2564375102519989,-0.11701250076293945,-0.14533749222755432
1711523603680889600,8.7958896484375,-0.2624875009059906,-0.10848750174045563,-0.14409999549388885
1711523603690535700,8.80553564453125,-0.2662000060081482,-0.1023000031709671,-0.12457499653100967
1711523603700181500,8.815181396484375,-0.2601499855518341,-0.11701250076293945,-0.09157499670982361
1711523603709827000,8.8248271484375,-0.24791249632835388,-0.1414874941110611,-0.05623750016093254
1711523603719473000,8.834472900390624,-0.2246749997138977,-0.15853749215602875,-0.01952499896287918
1711523603729118700,8.84411865234375,-0.19415000081062317,-0.15729999542236328,0.015949999913573265
1711523603738764800,8.853764892578125,-0.15991249680519104,-0.15125000476837158,0.032999999821186066
1711523603748411000,8.863410888671876,-0.11233749985694885,-0.13529999554157257,0.04028749838471413
1711523603758056700,8.873056640625,-0.0695749968290329,-0.11453749984502792,0.047712501138448715
1711523603767702500,8.88270263671875,-0.04138749837875366,-0.10353749990463257,0.050187498331069946
1711523603777348400,8.892348388671875,-0.027912499383091927,-0.11219999939203262,0.042762499302625656
1711523603786994200,8.901994140625,-0.025575000792741776,-0.12677499651908875,0.032999999821186066
1711523603796640000,8.911639892578124,-0.04138749837875366,-0.1340624988079071,0.023237500339746475
1711523603806285800,8.921285888671875,-0.05967500060796738,-0.11701250076293945,0.032999999821186066
1711523603815931600,8.930931640625,-0.07562500238418579,-0.08648750185966492,0.0635249987244606
1711523603825577500,8.940577392578126,-0.08167500048875809,-0.04977500066161156,0.11976250261068344
1711523603835223600,8.9502236328125,-0.07315000146627426,-0.014437500387430191,0.1845249980688095
1711523603844869400,8.959869384765625,-0.047575000673532486,-0.0034374999813735485,0.24310000240802765
1711523603854515200,8.96951513671875,-0.015812499448657036,-0.005912499967962503,0.2773374915122986
1711523603864161300,8.979161376953124,0.00989999994635582,-0.011962499469518661,0.29081249237060547
1711523603873807000,8.98880712890625,0.012374999932944775,-0.021724998950958252,0.28228750824928284
1711523603883453000,8.998452880859375,0.00013749999925494194,-0.029012499377131462,0.27486249804496765
1711523603893098800,9.0080986328125,-0.01691249944269657,-0.027775000780820847,0.2798124849796295
1711523603902744600,9.01774462890625,-0.03162499889731407,-0.0364375002682209,0.3018124997615814
1711523603912390700,9.027390625,-0.03891250118613243,-0.05843750014901161,0.3273875117301941
1711523603922036500,9.037036376953125,-0.02186249941587448,-0.06201250106096268,0.34814998507499695
1711523603931682600,9.0466826171875,0.01718750037252903,-0.04977500066161156,0.36162498593330383
1711523603941328400,9.056328369140624,0.07713750004768372,-0.021724998950958252,0.37014999985694885
1711523603950974200,9.06597412109375,0.14423750340938568,0.03203750029206276,0.3713875114917755
1711523603960620000,9.0756201171875,0.20542499423027039,0.09556250274181366,0.35557499527931213
1711523603970265900,9.085265869140626,0.25423750281333923,0.16032500565052032,0.32381248474121094
1711523603979911700,9.09491162109375,0.2737624943256378,0.2176624983549118,0.2773374915122986
1711523603989557800,9.104557861328125,0.26028749346733093,0.26413750648498535,0.23100000619888306
1711523603999203600,9.11420361328125,0.22247499227523804,0.2886124849319458,0.19910000264644623
1711523604008849700,9.123849609375,0.17366249859333038,0.281187504529953,0.1882375031709671
1711523604018495500,9.13349560546875,0.11990000307559967,0.24832500517368317,0.19304999709129333
1711523604028141300,9.143141357421875,0.07218749821186066,0.19208750128746033,0.1979999989271164
1711523604037787000,9.152786865234376,0.037950001657009125,0.12127500027418137,0.1905750036239624
1711523604047433000,9.162432861328124,0.025712499395012856,0.06132499873638153,0.17352500557899475
1711523604057078800,9.172078857421875,0.02694999985396862,0.040562499314546585,0.15152500569820404
1711523604066724600,9.181724609375,0.03671250119805336,0.06627500057220459,0.11728750169277191
1711523604076370400,9.191370361328126,0.052662499248981476,0.10656250268220901,0.07328750193119049
1711523604086016300,9.201016357421874,0.0611874982714653,0.1541374921798706,0.032999999821186066
1711523604095662300,9.210662353515625,0.07947500050067902,0.18837499618530273,0.002474999986588955
1711523604105308200,9.22030810546875,0.10889999568462372,0.22384999692440033,-0.015812499448657036
1711523604114954200,9.229954345703124,0.13571250438690186,0.26042500138282776,-0.014574999921023846
1711523604124599800,9.239599853515625,0.1564749926328659,0.2653749883174896,-0.0085249999538064
1711523604134246000,9.249245849609375,0.17366249859333038,0.23485000431537628,-0.007287499960511923
1711523604143891700,9.2588916015625,0.18095000088214874,0.17489999532699585,-0.014574999921023846
1711523604153537500,9.26853759765625,0.17366249859333038,0.08084999769926071,-0.04028749838471413
1711523604163183400,9.278183349609375,0.14918750524520874,0.0038499999791383743,-0.07204999774694443
1711523604172829200,9.2878291015625,0.12113749980926514,-0.037675000727176666,-0.10752499848604202
1711523604182475000,9.29747509765625,0.09790000319480896,-0.06696250289678574,-0.14409999549388885
1711523604192121000,9.30712109375,0.08689999580383301,-0.07796250283718109,-0.18081249296665192
1711523604201767000,9.316766845703125,0.08813749998807907,-0.06696250289678574,-0.2125750035047531
1711523604211412700,9.326412841796875,0.09418749809265137,-0.0364375002682209,-0.2358125001192093
1711523604221058800,9.336058837890626,0.10642500221729279,0.006324999965727329,-0.24186250567436218
1711523604230704600,9.34570458984375,0.11866249889135361,0.04908749833703041,-0.21986250579357147
1711523604240350500,9.3553505859375,0.13089999556541443,0.0882750004529953,-0.17833749949932098
1711523604249996300,9.364996337890625,0.14300000667572021,0.11384999752044678,-0.12333749979734421
1711523604259642000,9.37464208984375,0.15399999916553497,0.10656250268220901,-0.07081250101327896
1711523604269288000,9.384287841796874,0.16871249675750732,0.07232499867677689,-0.02928750030696392
1711523604278934000,9.39393408203125,0.1882375031709671,0.03932499885559082,-0.007287499960511923
1711523604288580000,9.403580078125,0.22123749554157257,0.023512499406933784,0.0012374999932944775
1711523604298226000,9.413225830078124,0.26647499203681946,0.02474999986588955,-0.0085249999538064
1711523604307871500,9.42287158203125,0.32023748755455017,0.04427500069141388,-0.035337500274181366
1711523604317517600,9.432517578125,0.37400001287460327,0.07356250286102295,-0.07081250101327896
1711523604327163400,9.442163330078126,0.41676250100135803,0.09556250274181366,-0.11233749985694885
1711523604336809200,9.451809326171874,0.4375250041484833,0.10656250268220901,-0.14781250059604645
1711523604346455000,9.461455078125,0.43876248598098755,0.1163249984383583,-0.16362500190734863
1711523604356101000,9.47110107421875,0.43505001068115234,0.11879999935626984,-0.14781250059604645
1711523604365747000,9.480746826171876,0.44110000133514404,0.09556250274181366,-0.11110000312328339
1711523604375393000,9.49039306640625,0.4558124840259552,0.052799999713897705,-0.0695749968290329
1711523604385038600,9.50003857421875,0.4692874848842621,0.010037500411272049,-0.037812501192092896
1711523604394684700,9.5096845703125,0.4815250039100647,-0.022962499409914017,-0.023237500339746475
1711523604404330500,9.51933056640625,0.48881250619888306,-0.009487500414252281,-0.02199999988079071
1711523604413976300,9.528976318359375,0.4961000084877014,0.02708750031888485,-0.03423750028014183
1711523604423622100,9.5386220703125,0.5132874846458435,0.052799999713897705,-0.059812501072883606
1711523604433268200,9.548268310546876,0.5352874994277954,0.056512501090765,-0.09404999762773514
1711523604442914000,9.5579140625,0.5523374676704407,0.04427500069141388,-0.12581250071525574
1711523604452560000,9.567559814453125,0.5803874731063843,0.01979999989271164,-0.15152500569820404
1711523604462206000,9.5772060546875,0.6121500134468079,0.007562499959021807,-0.16981250047683716
1711523604471851800,9.586851806640626,0.6403374671936035,0.021037500351667404,-0.17833749949932098
1711523604481497600,9.59649755859375,0.6610999703407288,0.047849997878074646,-0.17586250603199005
1711523604491143400,9.606143310546875,0.6671500205993652,0.08703749626874924,-0.14533749222755432
1711523604500789200,9.615789306640625,0.6586250066757202,0.1260875016450882,-0.09281250089406967
1711523604510435300,9.625435302734376,0.6439124941825867,0.12484999746084213,-0.03657500073313713
1711523604520081000,9.635080810546874,0.6305750012397766,0.07356250286102295,0.00976249948143959
1711523604529726700,9.644726806640625,0.6133875250816345,0.035750001668930054,0.03918749839067459
1711523604539372500,9.65437255859375,0.5975750088691711,0.040562499314546585,0.054999999701976776
1711523604549018600,9.6640185546875,0.5963374972343445,0.0625625029206276,0.059950001537799835
1711523604558664700,9.673664794921875,0.6000499725341797,0.08332499861717224,0.03918749839067459
1711523604568310500,9.683310546875,0.6036249995231628,0.09679999947547913,0.0037124999798834324
1711523604577956400,9.692956298828125,0.6109125018119812,0.10779999941587448,-0.04881250113248825
1711523604587602200,9.702602294921874,0.6146249771118164,0.09556250274181366,-0.11110000312328339
1711523604597248000,9.712248046875,0.607337474822998,0.08208750188350677,-0.1685750037431717
1711523604606893800,9.721893798828125,0.5853375196456909,0.09927500039339066,-0.20514999330043793
1711523604616539600,9.73153955078125,0.5498625040054321,0.10779999941587448,-0.2186249941587448
1711523604626185700,9.741185791015624,0.510812520980835,0.13956250250339508,-0.18328750133514404
1711523604635831600,9.75083154296875,0.48276248574256897,0.17489999532699585,-0.10752499848604202
1711523604645477600,9.7604775390625,0.46309998631477356,0.16279999911785126,-0.02681249938905239
1711523604655123500,9.77012353515625,0.4545750021934509,0.12856249511241913,0.047712501138448715
1711523604664769300,9.779769287109374,0.4595249891281128,0.09803749620914459,0.10999999940395355
1711523604674415000,9.7894150390625,0.4740999937057495,0.0625625029206276,0.1527625024318695
1711523604684061000,9.79906103515625,0.5022875070571899,0.028324998915195465,0.16981250047683716
1711523604693707000,9.80870703125,0.5352874994277954,-0.009487500414252281,0.1625249981880188
1711523604703352800,9.818352783203125,0.5620999932289124,-0.025437500327825546,0.13323749601840973
1711523604712999000,9.8279990234375,0.5816249847412109,-0.011962499469518661,0.09281250089406967
1711523604722644700,9.837644775390626,0.5865749716758728,0.01251249946653843,0.05376249924302101
1711523604732290800,9.847290771484374,0.5841000080108643,0.030799999833106995,0.035475000739097595
1711523604741936400,9.856936279296875,0.5755749940872192,0.033275000751018524,0.030524998903274536
1711523604751582500,9.86658251953125,0.5572875142097473,0.007562499959021807,0.0317624993622303
1711523604761228000,9.87622802734375,0.5400999784469604,-0.04372499883174896,0.03423750028014183
1711523604770874000,9.8858740234375,0.5218124985694885,-0.09253749996423721,0.04647500067949295
1711523604780520200,9.895520263671875,0.5230500102043152,-0.12072499841451645,0.06847500056028366
1711523604790165800,9.905165771484375,0.5400999784469604,-0.13296249508857727,0.0952875018119812
1711523604799811800,9.914811767578126,0.5645750164985657,-0.1377750039100647,0.11371249705553055
1711523604809457400,9.92445751953125,0.5913875102996826,-0.1377750039100647,0.11976250261068344
1711523604819103500,9.934103515625,0.6133875250816345,-0.12196250259876251,0.11371249705553055
1711523604828749300,9.943749267578125,0.6353874802589417,-0.09872499853372574,0.0952875018119812
1711523604838395400,9.9533955078125,0.6525750160217285,-0.09748750180006027,0.059950001537799835
1711523604848041200,9.963041259765625,0.6659125089645386,-0.1317249983549118,0.01223750039935112
1711523604857687000,9.97268701171875,0.6830999851226807,-0.18548749387264252,-0.0317624993622303
1711523604867332900,9.982332763671875,0.6928625106811523,-0.219587504863739,-0.057337500154972076
1711523604876979000,9.99197900390625,0.7001500129699707,-0.21601249277591705,-0.047575000673532486
1711523604886624800,10.001624755859375,0.717199981212616,-0.20253749191761017,-0.01223750039935112
1711523604896270600,10.0112705078125,0.7391999959945679,-0.20858749747276306,0.03423750028014183
1711523604905916400,10.02091650390625,0.7624375224113464,-0.23182499408721924,0.07947500050067902
1711523604915562200,10.030562255859374,0.8003875017166138,-0.25753748416900635,0.11852499842643738
1711523604925208300,10.040208251953125,0.8577250242233276,-0.2905375063419342,0.1405249983072281
1711523604934854100,10.049854248046875,0.9017249941825867,-0.3100624978542328,0.13557499647140503
1711523604944500000,10.0595,0.9164375066757202,-0.24406249821186066,0.13323749601840973
1711523604954145800,10.069145751953124,0.909012496471405,-0.15496249496936798,0.13557499647140503
1711523604963791600,10.07879150390625,0.9079124927520752,-0.10353749990463257,0.14423750340938568
1711523604973437700,10.088437744140625,0.9249625205993652,-0.09501250088214874,0.1588124930858612
1711523604983083500,10.09808349609375,0.9494374990463257,-0.1340624988079071,0.1662375032901764
1711523604992729600,10.1077294921875,0.9872499704360962,-0.1915374994277954,0.16005000472068787
1711523605002375400,10.11737548828125,1.0324875116348267,-0.23058749735355377,0.1307625025510788
1711523605012021200,10.127021240234376,1.085012435913086,-0.24406249821186066,0.09171249717473984
1711523605021667000,10.1366669921875,1.1460624933242798,-0.23430000245571136,0.047712501138448715
1711523605031313000,10.14631298828125,1.2120624780654907,-0.20624999701976776,-0.0012374999932944775
1711523605040958700,10.155958740234375,1.2608749866485596,-0.1377750039100647,-0.02681249938905239
1711523605050604800,10.165604736328126,1.301300048828125,-0.05719999969005585,-0.03904999792575836
1711523605060251000,10.1752509765625,1.3378750085830688,0.02227500081062317,-0.05609999969601631
1711523605069896400,10.184896484375,1.380637526512146,0.09556250274181366,-0.07576250284910202
1711523605079542500,10.19454248046875,1.4588749408721924,0.17489999532699585,-0.09652499854564667
1711523605089188400,10.204188232421876,1.5566375255584717,0.23361249268054962,-0.13062499463558197
1711523605098834200,10.213834228515625,1.6739250421524048,0.2531374990940094,-0.15757499635219574
1711523605108480000,10.22347998046875,1.7727874517440796,0.21037499606609344,-0.1746249943971634
1711523605118125800,10.233125732421875,1.8632625341415405,0.07727500051259995,-0.17833749949932098
1711523605127772000,10.24277197265625,1.9365500211715698,-0.10848750174045563,-0.16981250047683716
1711523605137417700,10.252417724609375,2.002549886703491,-0.22082500159740448,-0.15028749406337738
1711523605147063800,10.262063720703125,2.0794124603271484,-0.2563000023365021,-0.13186250627040863
1711523605156709600,10.271709716796876,2.1454124450683594,-0.227012500166893,-0.11357499659061432
1711523605166355500,10.28135546875,2.2186999320983887,-0.11701250076293945,-0.08786249905824661
1711523605176001300,10.291001220703125,2.3152248859405518,0.01251249946653843,-0.06710000336170197
1711523605185647000,10.300647216796875,2.453274965286255,0.1443749964237213,-0.06710000336170197
1711523605195293200,10.310293212890626,2.6560873985290527,0.26413750648498535,-0.09281250089406967
1711523605204939000,10.31993896484375,2.844325065612793,0.35571250319480896,-0.1331000030040741
1711523605214585000,10.329585205078125,2.95666241645813,0.3801875114440918,-0.20514999330043793
1711523605224231000,10.33923095703125,2.9921374320983887,0.36547499895095825,-0.2638624906539917
1711523605233876700,10.348876708984376,2.984712600708008,0.31418749690055847,-0.28833749890327454
1711523605243522600,10.3585224609375,2.9506125450134277,0.23485000431537628,-0.28091248869895935
1711523605253168400,10.36816845703125,2.9114248752593994,0.13337500393390656,-0.25533750653266907
1711523605262814500,10.377814453125,2.8711373805999756,0.052799999713897705,-0.21381250023841858
1711523605272460300,10.387460205078124,2.8638498783111572,0.07108750194311142,-0.15633749961853027
1711523605282106000,10.397106201171875,2.8650875091552734,0.1676124930381775,-0.09886249899864197
1711523605291752000,10.406751953125,2.866187572479248,0.25561249256134033,-0.07576250284910202
1711523605301398000,10.41639794921875,2.866187572479248,0.2886124849319458,-0.08552499860525131
1711523605311043800,10.4260439453125,2.8528499603271484,0.29589998722076416,-0.09886249899864197
1711523605320689700,10.435689697265625,2.8393750190734863,0.29589998722076416,-0.11852499842643738
1711523605330335700,10.445335693359375,2.806375026702881,0.26785001158714294,-0.14781250059604645
1711523605339981600,10.454981689453126,2.7501375675201416,0.2763749957084656,-0.17104999721050262
1711523605349627400,10.46462744140625,2.670799970626831,0.3264249861240387,-0.1722874939441681
1711523605359273200,10.474273193359375,2.5693249702453613,0.38871249556541443,-0.16981250047683716
1711523605368919000,10.4839189453125,2.455749988555908,0.40466248989105225,-0.16238750517368317
1711523605378565400,10.4935654296875,2.3372249603271484,0.3546124994754791,-0.15028749406337738
1711523605388211200,10.503211181640625,2.2236499786376953,0.2751374840736389,-0.13433749973773956
1711523605397857000,10.51285693359375,2.1148874759674072,0.1835625022649765,-0.12086249887943268
1711523605407502800,10.5225029296875,2.013550043106079,0.11384999752044678,-0.10752499848604202
1711523605417148700,10.532148681640624,1.9205999374389648,0.0882750004529953,-0.09886249899864197
1711523605426794500,10.54179443359375,1.8339749574661255,0.08084999769926071,-0.0952875018119812
1711523605436440300,10.5514404296875,1.7642624378204346,0.09308750182390213,-0.09281250089406967
1711523605446086100,10.561086181640626,1.700737476348877,0.10408750176429749,-0.10876250267028809
1711523605455732200,10.570732177734374,1.6311625242233276,0.1163249984383583,-0.1405249983072281
1711523605465378000,10.5803779296875,1.572450041770935,0.12484999746084213,-0.18328750133514404
1711523605475024100,10.590024169921875,1.5186874866485596,0.11137499660253525,-0.19910000264644623
1711523605484670000,10.599669921875,1.4271124601364136,0.09556250274181366,-0.1905750036239624
1711523605494315800,10.609315673828124,1.3048750162124634,0.04661250114440918,-0.1588124930858612
1711523605503961600,10.618961669921875,1.1643500328063965,-0.027912499383091927,-0.11357499659061432
1711523605513607700,10.628607666015625,1.0287749767303467,-0.09501250088214874,-0.06228749826550484
1711523605523253500,10.63825341796875,0.9334874749183655,-0.147537499666214,-0.014574999921023846
1711523605532899300,10.6478994140625,0.8687250018119812,-0.15125000476837158,0.01223750039935112
1711523605542545400,10.65754541015625,0.8271999955177307,-0.12553749978542328,0.020762499421834946
1711523605552191500,10.66719140625,0.7991499900817871,-0.08772499859333038,0.029424998909235
1711523605561837300,10.67683740234375,0.7588624954223633,-0.05967500060796738,0.050187498331069946
1711523605571483100,10.686483154296875,0.6976749897003174,-0.05224999785423279,0.07699999958276749
1711523605581129000,10.69612890625,0.6023874878883362,-0.05101250112056732,0.10271249711513519
1711523605590774800,10.70577490234375,0.49252501130104065,-0.05596249923110008,0.11728750169277191
1711523605600420600,10.715420654296874,0.37757501006126404,-0.10119999945163727,0.11852499842643738
1711523605610066700,10.725066650390625,0.2615250051021576,-0.16596250236034393,0.11604999750852585
1711523605619712500,10.73471240234375,0.1504250019788742,-0.22453749179840088,0.12347500026226044
1711523605629358600,10.744358642578124,0.050187498331069946,-0.2868250012397766,0.1368124932050705
1711523605639004400,10.75400439453125,-0.030387500301003456,-0.3601124882698059,0.15152500569820404
1711523605648650200,10.763650146484375,-0.07315000146627426,-0.4273499846458435,0.16499999165534973
1711523605658296000,10.773296142578126,-0.08538749814033508,-0.4456374943256378,0.18081249296665192
1711523605667942000,10.78294189453125,-0.0719124972820282,-0.39682498574256897,0.18700000643730164
1711523605677587700,10.792587646484375,-0.04138749837875366,-0.3345375061035156,0.18328750133514404
1711523605687233500,10.802233642578125,0.002612499985843897,-0.26358750462532043,0.18328750133514404
1711523605696879600,10.811879638671876,0.052662499248981476,-0.18672500550746918,0.1942874938249588
1711523605706525400,10.821525390625,0.10147500038146973,-0.11577499657869339,0.21876250207424164
1711523605716171500,10.831171630859375,0.15166249871253967,-0.04867500066757202,0.24310000240802765
1711523605725817300,10.8408173828125,0.20295000076293945,0.018562499433755875,0.26633748412132263
1711523605735463200,10.850463134765626,0.25423750281333923,0.0906125009059906,0.2858625054359436
1711523605745109200,10.860109130859374,0.2932874858379364,0.13956250250339508,0.29081249237060547
1711523605754755000,10.869755126953125,0.3030500113964081,0.18466250598430634,0.2798124849796295
1711523605764401000,10.87940087890625,0.2835249900817871,0.2116124927997589,0.24681249260902405
1711523605774047000,10.889046875,0.24447499215602875,0.2176624983549118,0.20899999141693115
1711523605783692800,10.89869287109375,0.21642500162124634,0.20913749933242798,0.18700000643730164
1711523605793339000,10.9083388671875,0.21518750488758087,0.20542499423027039,0.17957499623298645
1711523605802984400,10.917984375,0.23223750293254852,0.19813749194145203,0.1845249980688095
1711523605812630500,10.927630615234374,0.2737624943256378,0.20184999704360962,0.1942874938249588
1711523605822276400,10.9372763671875,0.31776249408721924,0.2079000025987625,0.20157499611377716
1711523605831922200,10.946922119140625,0.3544749915599823,0.23718750476837158,0.20776249468326569
1711523605841568300,10.956568359375,0.37400001287460327,0.2946625053882599,0.21504999697208405
1711523605851213800,10.9662138671875,0.369049996137619,0.328900009393692,0.2223374992609024
1711523605860860000,10.97585986328125,0.3385249972343445,0.31418749690055847,0.24310000240802765
1711523605870506000,10.985506103515625,0.2872374951839447,0.2763749957084656,0.28228750824928284
1711523605880151800,10.99515185546875,0.23471249639987946,0.22013749182224274,0.3335750102996826
1711523605889797600,11.004797607421875,0.19318750500679016,0.15661250054836273,0.37757501006126404
1711523605899443500,11.014443359375,0.17476250231266022,0.07479999959468842,0.39338749647140503
1711523605909089300,11.02408935546875,0.17366249859333038,0.0015124999918043613,0.3763374984264374
1711523605918735400,11.0337353515625,0.17847499251365662,-0.015675000846385956,0.3188624978065491
1711523605928381200,11.043381103515625,0.1821874976158142,0.023512499406933784,0.22728750109672546
1711523605938027000,11.053027099609375,0.18095000088214874,0.09556250274181366,0.13805000483989716
1711523605947672800,11.0626728515625,0.15523749589920044,0.20061250030994415,0.06971249729394913
1711523605957319000,11.07231884765625,0.10889999568462372,0.27994999289512634,0.028187500312924385
1711523605966964700,11.08196484375,0.04413750022649765,0.30195000767707825,0.0085249999538064
1711523605976610600,11.091610595703125,-0.02914999984204769,0.2886124849319458,0.01347499992698431
1711523605986256600,11.101256591796876,-0.1073874980211258,0.25066250562667847,0.020762499421834946
1711523605995902500,11.11090234375,-0.17820000648498535,0.18108749389648438,0.025712499395012856
1711523606005548300,11.12054833984375,-0.23196250200271606,0.10408750176429749,0.028187500312924385
1711523606015194000,11.130194091796875,-0.2723875045776367,0.008799999952316284,0.020762499421834946
1711523606024840000,11.13983984375,-0.2881999909877777,-0.0999625027179718,-0.0035749999806284904
1711523606034485800,11.14948583984375,-0.2759625017642975,-0.1989624947309494,-0.042762499302625656
1711523606044131800,11.1591318359375,-0.2503874897956848,-0.23925000429153442,-0.08428750187158585
1711523606053778000,11.16877783203125,-0.23938749730587006,-0.22577500343322754,-0.11110000312328339
1711523606063423500,11.178423583984374,-0.2381500005722046,-0.15001249313354492,-0.09157499670982361
1711523606073069600,11.188069580078125,-0.24172499775886536,-0.020487500354647636,-0.030524998903274536
1711523606082715400,11.19771533203125,-0.24543750286102295,0.09679999947547913,0.032999999821186066
1711523606092361200,11.207361328125,-0.26496249437332153,0.15056249499320984,0.059950001537799835
1711523606102007300,11.21700732421875,-0.3114374876022339,0.14932499825954437,0.05623750016093254
1711523606111653000,11.226653076171875,-0.37619999051094055,0.11990000307559967,0.05128749832510948
1711523606121299200,11.23629931640625,-0.4384874999523163,0.06737499684095383,0.05871250107884407
1711523606130945300,11.2459453125,-0.4787749946117401,-0.018149999901652336,0.06599999964237213
1711523606140591000,11.255591064453125,-0.48372501134872437,-0.13296249508857727,0.04895000159740448
1711523606150237000,11.26523681640625,-0.4542999863624573,-0.2527250051498413,-0.006049999967217445
1711523606159882800,11.2748828125,-0.4017750024795532,-0.32477501034736633,-0.08428750187158585
1711523606169528600,11.284528564453124,-0.3419624865055084,-0.30882498621940613,-0.1551000028848648
1711523606179174400,11.29417431640625,-0.282150000333786,-0.227012500166893,-0.19415000081062317
1711523606188820200,11.3038203125,-0.22343750298023224,-0.14877499639987946,-0.20157499611377716
1711523606198466000,11.313466064453126,-0.170912504196167,-0.12553749978542328,-0.18438750505447388
1711523606208112000,11.323112060546874,-0.1354375034570694,-0.15248750150203705,-0.14162500202655792
1711523606217758200,11.33275830078125,-0.12209999561309814,-0.20377500355243683,-0.07933750003576279
1711523606227404000,11.342404052734375,-0.1428624987602234,-0.26358750462532043,-0.0170499999076128
1711523606237049900,11.3520498046875,-0.20019999146461487,-0.3198249936103821,0.037950001657009125
1711523606246695700,11.36169580078125,-0.2686749994754791,-0.3503499925136566,0.08428750187158585
1711523606256341800,11.371341796875,-0.33219999074935913,-0.3601124882698059,0.12223749607801437
1711523606265987600,11.380987548828125,-0.3774375021457672,-0.3858250081539154,0.16005000472068787
1711523606275633700,11.390633544921876,-0.39943748712539673,-0.41029998660087585,0.20528750121593475
1711523606285279500,11.400279541015625,-0.40796250104904175,-0.4310624897480011,0.25533750653266907
1711523606294925300,11.40992529296875,-0.4092000126838684,-0.42006251215934753,0.30057498812675476
1711523606304571100,11.419571044921875,-0.42143750190734863,-0.3638249933719635,0.33233749866485596
1711523606314217200,11.42921728515625,-0.4507249891757965,-0.2868250012397766,0.3310999870300293
1711523606323863000,11.438863037109375,-0.48977500200271606,-0.2050125002861023,0.30428749322891235
1711523606333508900,11.4485087890625,-0.5374875068664551,-0.1280124932527542,0.26276248693466187
1711523606343155000,11.458155029296876,-0.5887749791145325,-0.03891250118613243,0.22852499783039093
1711523606352801000,11.467801025390624,-0.6290624737739563,0.04427500069141388,0.20652499794960022
1711523606362446800,11.47744677734375,-0.6413000226020813,0.08332499861717224,0.1905750036239624
1711523606372092700,11.4870927734375,-0.6155874729156494,0.057612501084804535,0.16499999165534973
1711523606381738500,11.496738525390626,-0.5605875253677368,-0.011962499469518661,0.13323749601840973
1711523606391384300,11.50638427734375,-0.4763000011444092,-0.0742499977350235,0.1050499975681305
1711523606401030100,11.516030029296875,-0.3712500035762787,-0.09872499853372574,0.07947500050067902
1711523606410676200,11.52567626953125,-0.25891250371932983,-0.05348749831318855,0.06476250290870667
1711523606420322300,11.535322265625,-0.1551000028848648,0.07837499678134918,0.047712501138448715
1711523606429968100,11.544968017578125,-0.07315000146627426,0.24584999680519104,0.006187499966472387
1711523606439614000,11.554614013671875,-0.0170499999076128,0.4021874964237213,-0.05857500061392784
1711523606449259800,11.564259765625,0.0147124994546175,0.510949969291687,-0.13805000483989716
1711523606458905600,11.573905517578124,0.03189999982714653,0.5659499764442444,-0.20762500166893005
1711523606468551700,11.5835517578125,0.04413750022649765,0.5720000267028809,-0.24791249632835388
1711523606478197500,11.593197509765625,0.04647500067949295,0.5182374715805054,-0.2626250088214874
1711523606487843600,11.602843505859376,0.03437500074505806,0.4302375018596649,-0.25533750653266907
1711523606497489400,11.612489501953124,0.015949999913573265,0.3398999869823456,-0.2358125001192093
1711523606507135200,11.62213525390625,-0.007149999961256981,0.2628999948501587,-0.2149125039577484
1711523606516781000,11.631781005859375,-0.03162499889731407,0.21408750116825104,-0.1868624985218048
1711523606526427100,11.64142724609375,-0.05115000158548355,0.18108749389648438,-0.15757499635219574
1711523606536073000,11.651072998046875,-0.05238749831914902,0.15166249871253967,-0.1270499974489212
1711523606545718800,11.66071875,-0.025575000792741776,0.12113749980926514,-0.09157499670982361
1711523606555364600,11.670364501953125,0.01718750037252903,0.09913749992847443,-0.05609999969601631
1711523606565010700,11.6800107421875,0.06847500056028366,0.06737499684095383,-0.02199999988079071
1711523606574656500,11.689656494140625,0.12099999934434891,0.033275000751018524,0.01223750039935112
1711523606584302600,11.699302490234375,0.17118750512599945,0.013749999925494194,0.029424998909235
1711523606593948400,11.708948486328126,0.22123749554157257,0.0002749999985098839,0.023237500339746475
1711523606603594500,11.718594482421874,0.2554749846458435,-0.0009624999947845936,-0.0085249999538064
1711523606613240300,11.728240234375,0.2554749846458435,-0.008249999955296516,-0.06228749826550484
1711523606622886100,11.73788623046875,0.22495000064373016,-0.0644875019788742,-0.11357499659061432
1711523606632532000,11.747531982421876,0.19318750500679016,-0.1060125008225441,-0.13186250627040863
1711523606642178000,11.757177978515625,0.16266250610351562,-0.13296249508857727,-0.12209999561309814
1711523606651824000,11.76682421875,0.1344749927520752,-0.16596250236034393,-0.10986249893903732
1711523606661470000,11.776469970703126,0.11495000123977661,-0.20624999701976776,-0.10381250083446503
1711523606671115800,11.78611572265625,0.11013749986886978,-0.22082500159740448,-0.09776250272989273
1711523606680761600,11.79576171875,0.12594999372959137,-0.20624999701976776,-0.08552499860525131
1711523606690407400,11.805407470703125,0.1564749926328659,-0.16830000281333923,-0.08057499676942825
1711523606700053200,11.81505322265625,0.1882375031709671,-0.10848750174045563,-0.08181250095367432
1711523606709699000,11.824698974609374,0.2199999988079071,-0.03272499889135361,-0.08304999768733978
1711523606719345200,11.83434521484375,0.2457125037908554,0.038087498396635056,-0.08786249905824661
1711523606728991200,11.8439912109375,0.2677125036716461,0.06627500057220459,-0.09886249899864197
1711523606738637000,11.853636962890626,0.2700499892234802,0.05156249925494194,-0.12209999561309814
1711523606748283000,11.863282958984374,0.2615250051021576,0.028324998915195465,-0.1331000030040741
