time,seconds_elapsed,z,y,x
1711523595029761800,0.14476171875,-47.94375228881836,18.1875,5.643750190734863
1711523595049970400,0.164970458984375,-47.8125,18.11250114440918,5.15625
1711523595070242000,0.185241943359375,-47.587501525878906,17.943750381469727,4.743750095367432
1711523595090363600,0.20536376953125,-47.70000076293945,18,4.912500381469727
1711523595110392000,0.22539208984375,-47.70000076293945,17.943750381469727,4.912500381469727
1711523595130367000,0.245366943359375,-47.70000076293945,17.943750381469727,4.987500190734863
1711523595150089700,0.26508984375,-48,18.11250114440918,5.15625
1711523595169787000,0.284786865234375,-47.64375305175781,18.243751525878906,5.212500095367432
1711523595189865000,0.304864990234375,-47.51250076293945,18.30000114440918,4.856250286102295
1711523595210163700,0.325163818359375,-47.75625228881836,18.243751525878906,5.212500095367432
1711523595230271700,0.345271728515625,-47.51250076293945,17.887500762939453,5.043750286102295
1711523595250315500,0.3653154296875,-47.51250076293945,17.756250381469727,5.043750286102295
1711523595270325500,0.385325439453125,-47.8125,17.887500762939453,5.287500381469727
1711523595290000000,0.404999755859375,-47.88750076293945,17.943750381469727,5.287500381469727
1711523595309713400,0.42471337890625,-47.587501525878906,18.48750114440918,5.212500095367432
1711523595330073600,0.445073486328125,-47.64375305175781,18.412500381469727,5.34375
1711523595350210600,0.46521044921875,-47.51250076293945,18.48750114440918,5.34375
1711523595370280000,0.485280029296875,-47.587501525878906,18.11250114440918,5.212500095367432
1711523595390308000,0.50530810546875,-47.88750076293945,18.11250114440918,5.34375
1711523595410278000,0.52527783203125,-48.11250305175781,18.1875,5.456250190734863
1711523595429978400,0.544978271484375,-48.11250305175781,18.243751525878906,5.400000095367432
1711523595449722400,0.564722412109375,-48.11250305175781,18.543750762939453,5.34375
1711523595470027800,0.58502783203125,-48,18.412500381469727,5.100000381469727
1711523595490198300,0.6051982421875,-47.70000076293945,18.543750762939453,4.856250286102295
1711523595510116400,0.625116455078125,-47.75625228881836,18.48750114440918,4.5
1711523595530228500,0.645228515625,-47.70000076293945,18.30000114440918,4.556250095367432
1711523595550208800,0.665208740234375,-47.75625228881836,18.1875,4.612500190734863
1711523595569878300,0.684878173828125,-48,18.30000114440918,4.3125
1711523595589673500,0.704673583984375,-48,18.243751525878906,4.5
1711523595610018800,0.725018798828125,-48.243751525878906,18.11250114440918,4.387500286102295
1711523595630025200,0.745025146484375,-48.056251525878906,18.11250114440918,4.387500286102295
1711523595650211300,0.76521142578125,-48.243751525878906,18,4.612500190734863
1711523595670296000,0.785296142578125,-48.11250305175781,17.943750381469727,4.612500190734863
1711523595690029600,0.805029541015625,-47.8125,18.1875,4.6875
1711523595709818400,0.824818359375,-48.11250305175781,18.412500381469727,4.856250286102295
1711523595729943000,0.844943115234375,-48.11250305175781,18.30000114440918,4.743750095367432
1711523595750154200,0.865154296875,-48.35625076293945,18.412500381469727,4.743750095367432
1711523595770271500,0.885271484375,-48.35625076293945,18.30000114440918,4.612500190734863
1711523595790312400,0.9053125,-48.187503814697266,18.412500381469727,4.743750095367432
1711523595810318600,0.925318603515625,-48.056251525878906,18.787500381469727,5.100000381469727
1711523595830097200,0.94509716796875,-47.94375228881836,18.712501525878906,5.043750286102295
1711523595849797600,0.964797607421875,-47.587501525878906,18.787500381469727,5.15625
1711523595869923600,0.984923583984375,-48.056251525878906,18.600000381469727,4.856250286102295
1711523595889963800,1.0049638671875,-48.056251525878906,18.412500381469727,4.743750095367432
1711523595909998300,1.024998291015625,-47.94375228881836,18.30000114440918,5.043750286102295
1711523595930024700,1.045024658203125,-48.243751525878906,18.412500381469727,5.043750286102295
1711523595950204000,1.065203857421875,-48.11250305175781,18.48750114440918,5.043750286102295
1711523595969992000,1.084991943359375,-47.75625228881836,18.48750114440918,4.987500190734863
1711523595989768000,1.104767822265625,-47.88750076293945,18.543750762939453,4.6875
1711523596009870800,1.124870849609375,-47.94375228881836,18.412500381469727,4.612500190734863
1711523596030135800,1.1451357421875,-47.587501525878906,18.412500381469727,4.800000190734863
1711523596050272300,1.165272216796875,-47.75625228881836,18.356250762939453,4.6875
1711523596070157300,1.1851572265625,-47.88750076293945,18.412500381469727,4.987500190734863
1711523596090234400,1.205234375,-47.70000076293945,18.600000381469727,5.043750286102295
1711523596109993200,1.2249931640625,-47.70000076293945,18.787500381469727,5.100000381469727
1711523596129753900,1.24475390625,-47.88750076293945,18.712501525878906,5.34375
1711523596150112800,1.26511279296875,-47.88750076293945,18.65625,5.587500095367432
1711523596170069500,1.285069580078125,-47.88750076293945,18.712501525878906,5.700000286102295
1711523596189991700,1.30499169921875,-48.187503814697266,18.84375,5.887500286102295
1711523596209771500,1.324771484375,-48.056251525878906,18.787500381469727,5.700000286102295
1711523596229979400,1.3449794921875,-48,18.787500381469727,5.287500381469727
1711523596249798100,1.364798095703125,-48.11250305175781,18.600000381469727,5.15625
1711523596270021600,1.385021728515625,-48.056251525878906,18.412500381469727,4.987500190734863
1711523596290281500,1.405281494140625,-47.88750076293945,18.600000381469727,4.987500190734863
1711523596310338300,1.42533837890625,-47.88750076293945,18.543750762939453,4.856250286102295
1711523596330347000,1.445346923828125,-47.88750076293945,18.543750762939453,4.556250095367432
1711523596350325000,1.465324951171875,-47.70000076293945,18.412500381469727,4.443750381469727
1711523596370189600,1.485189453125,-47.8125,18.30000114440918,4.5
1711523596389818600,1.504818603515625,-48,18.243751525878906,4.612500190734863
1711523596409615600,1.52461572265625,-48.056251525878906,18.48750114440918,4.800000190734863
1711523596429962800,1.544962646484375,-47.94375228881836,18.543750762939453,5.043750286102295
1711523596450174200,1.56517431640625,-47.8125,18.95625114440918,5.100000381469727
1711523596470284300,1.5852841796875,-47.75625228881836,19.256250381469727,4.987500190734863
1711523596490104800,1.605104736328125,-47.587501525878906,19.200000762939453,5.100000381469727
1711523596509951500,1.624951416015625,-47.587501525878906,19.256250381469727,4.743750095367432
1711523596529742800,1.644742919921875,-47.75625228881836,19.256250381469727,4.912500381469727
1711523596549877500,1.66487744140625,-47.28750228881836,19.556251525878906,4.856250286102295
1711523596570122500,1.68512255859375,-47.10000228881836,19.98750114440918,4.612500190734863
1711523596590268700,1.7052685546875,-46.98750305175781,20.212501525878906,4.556250095367432
1711523596610323700,1.72532373046875,-46.98750305175781,20.512500762939453,4.256250381469727
1711523596630174200,1.74517431640625,-47.10000228881836,20.64375114440918,4.256250381469727
1711523596649956400,1.764956298828125,-47.04375076293945,20.64375114440918,4.200000286102295
1711523596669725400,1.784725341796875,-46.98750305175781,20.887500762939453,4.143750190734863
1711523596689876500,1.80487646484375,-46.6875,20.700000762939453,3.9000000953674316
1711523596710131500,1.82513134765625,-46.743751525878906,20.887500762939453,3.4875001907348633
1711523596730263300,1.84526318359375,-46.85625076293945,21.30000114440918,3.2437500953674316
1711523596750094800,1.8650947265625,-46.91250228881836,21.30000114440918,3
1711523596770196000,1.885196044921875,-46.556251525878906,21.356250762939453,2.8125
1711523596789985800,1.90498583984375,-46.38750076293945,21.356250762939453,2.5875000953674316
1711523596809735400,1.9247353515625,-46.25625228881836,21.11250114440918,2.15625
1711523596830076000,1.945075927734375,-46.3125,21.412500381469727,2.1000001430511475
1711523596850220300,1.96522021484375,-46.44375228881836,21.412500381469727,1.8000000715255737
1711523596870290200,1.985290283203125,-46.38750076293945,21.412500381469727,1.8562500476837158
1711523596890315800,2.005315673828125,-46.44375228881836,21.356250762939453,1.7437500953674316
1711523596910260200,2.02526025390625,-46.3125,21.11250114440918,1.5562500953674316
1711523596929908500,2.044908447265625,-46.5,21.11250114440918,1.256250023841858
1711523596949686000,2.06468603515625,-46.91250228881836,21,1.1437500715255737
1711523596970022400,2.0850224609375,-46.61250305175781,20.887500762939453,1.0125000476837158
1711523596990201300,2.105201416015625,-46.91250228881836,20.8125,1.2000000476837158
1711523597010284800,2.125284912109375,-47.28750228881836,20.756250381469727,1.5
1711523597030315300,2.145315185546875,-47.34375,20.756250381469727,1.5562500953674316
1711523597050207000,2.16520703125,-47.88750076293945,20.64375114440918,1.5562500953674316
1711523597069845200,2.18484521484375,-48,20.587501525878906,1.3875000476837158
1711523597089942000,2.20494189453125,-48.11250305175781,20.45625114440918,1.3875000476837158
1711523597110141000,2.225140869140625,-47.94375228881836,20.400001525878906,1.256250023841858
1711523597130246700,2.24524658203125,-47.94375228881836,20.287500381469727,1.5
1711523597150305500,2.265305419921875,-48,19.98750114440918,1.3875000476837158
1711523597170315800,2.285315673828125,-48.056251525878906,20.043750762939453,1.443750023841858
1711523597190126000,2.3051259765625,-47.94375228881836,19.98750114440918,1.3125
1711523597209821400,2.324821533203125,-48.41250228881836,20.212501525878906,1.3875000476837158
1711523597229646600,2.344646484375,-48.35625076293945,20.34375,1.7437500953674316
1711523597249976000,2.36497607421875,-48.54375076293945,20.15625,1.6875001192092896
1711523597270185700,2.385185791015625,-48.843753814697266,20.043750762939453,1.8562500476837158
1711523597290285300,2.405285400390625,-48.95625305175781,19.80000114440918,2.043750047683716
1711523597310313000,2.42531298828125,-49.20000076293945,19.61250114440918,2.1000001430511475
1711523597330047000,2.445046875,-49.20000076293945,19.556251525878906,2.15625
1711523597349762000,2.464761962890625,-49.20000076293945,19.80000114440918,2.5875000953674316
1711523597370063000,2.48506298828125,-48.712501525878906,20.043750762939453,2.8125
1711523597390211800,2.5052119140625,-48.712501525878906,19.98750114440918,2.9437501430511475
1711523597410287900,2.525287841796875,-48.712501525878906,19.98750114440918,3.187500238418579
1711523597430146300,2.545146240234375,-48.656253814697266,19.856250762939453,3.2437500953674316
1711523597450227000,2.56522705078125,-48.900001525878906,19.6875,3.4875001907348633
1711523597469987300,2.5849873046875,-48.900001525878906,19.80000114440918,3.7875001430511475
1711523597489711400,2.60471142578125,-48.78750228881836,19.912500381469727,4.143750190734863
1711523597510162400,2.625162353515625,-48.60000228881836,19.856250762939453,4.556250095367432
1711523597530272000,2.64527197265625,-48.656253814697266,19.912500381469727,4.912500381469727
1711523597550318600,2.665318603515625,-48.48750305175781,19.856250762939453,5.287500381469727
1711523597570327000,2.6853271484375,-48.78750228881836,19.61250114440918,5.512500286102295
1711523597590161200,2.7051611328125,-48.95625305175781,19.856250762939453,5.700000286102295
1711523597609860900,2.72486083984375,-48.95625305175781,19.912500381469727,5.700000286102295
1711523597629665300,2.744665283203125,-48.78750228881836,19.912500381469727,5.756250381469727
1711523597649822700,2.76482275390625,-48.656253814697266,20.15625,6.187500476837158
1711523597670121700,2.785121826171875,-48.78750228881836,20.15625,6.243750095367432
1711523597689874000,2.8048740234375,-48.78750228881836,20.212501525878906,6.656250476837158
1711523597709726500,2.8247265625,-48.900001525878906,20.212501525878906,6.843750476837158
1711523597729646800,2.844646728515625,-48.712501525878906,19.98750114440918,6.956250190734863
1711523597749612000,2.864612060546875,-48.60000228881836,19.912500381469727,7.143750190734863
1711523597769620700,2.884620849609375,-49.087501525878906,19.6875,7.443750381469727
1711523597789630000,2.9046298828125,-49.61250305175781,19.387500762939453,7.687500476837158
1711523597809642200,2.924642333984375,-50.28750228881836,19.556251525878906,8.100000381469727
1711523597829655800,2.94465576171875,-50.70000076293945,19.3125,8.21250057220459
1711523597849657000,2.964656982421875,-50.45625305175781,19.556251525878906,7.987500190734863
1711523597869669000,2.984669189453125,-50.28750228881836,19.98750114440918,8.043750762939453
1711523597889713000,3.004712890625,-49.91250228881836,20.043750762939453,7.987500190734863
1711523597909692000,3.02469189453125,-49.687503814697266,20.45625114440918,7.912500381469727
1711523597929892400,3.044892333984375,-49.85625076293945,20.587501525878906,8.043750762939453
1711523597950007300,3.06500732421875,-49.556251525878906,20.587501525878906,8.15625
1711523597970107100,3.085107177734375,-49.80000305175781,20.45625114440918,8.287500381469727
1711523597990207500,3.10520751953125,-49.743751525878906,20.212501525878906,8.287500381469727
1711523598010039300,3.125039306640625,-49.61250305175781,20.400001525878906,8.58750057220459
1711523598029792000,3.1447919921875,-49.85625076293945,20.45625114440918,8.700000762939453
1711523598049931500,3.164931640625,-49.20000076293945,20.8125,8.887500762939453
1711523598070151400,3.1851513671875,-49.14375305175781,21.056251525878906,9.300000190734863
1711523598090269400,3.20526953125,-49.20000076293945,20.887500762939453,9.600000381469727
1711523598110319600,3.225319580078125,-49.20000076293945,20.700000762939453,9.65625
1711523598130320600,3.245320556640625,-49.556251525878906,20.287500381469727,9.487500190734863
1711523598150068700,3.26506884765625,-49.687503814697266,20.15625,9.412500381469727
1711523598169741300,3.2847412109375,-49.44375228881836,20.212501525878906,9.05625057220459
1711523598190066700,3.305066650390625,-49.20000076293945,20.34375,9.05625057220459
1711523598210213400,3.32521337890625,-49.44375228881836,20.8125,9.05625057220459
1711523598230281500,3.345281494140625,-49.20000076293945,21.11250114440918,8.887500762939453
1711523598250306800,3.365306884765625,-49.01250076293945,21.11250114440918,9.1875
1711523598270266400,3.385266357421875,-49.20000076293945,21.30000114440918,9.356250762939453
1711523598289942300,3.4049423828125,-48.843753814697266,21.30000114440918,9.412500381469727
1711523598309694000,3.42469384765625,-48.95625305175781,20.887500762939453,9.356250762939453
1711523598330051800,3.4450517578125,-48.656253814697266,20.943750381469727,9.300000190734863
1711523598350204400,3.465204345703125,-48.843753814697266,20.8125,9.24375057220459
1711523598370281700,3.48528173828125,-49.087501525878906,20.700000762939453,9.300000190734863
1711523598390419200,3.505419189453125,-48.78750228881836,20.8125,9.1875
1711523598410285600,3.52528564453125,-48.78750228881836,21.056251525878906,9.412500381469727
1711523598429881600,3.544881591796875,-48.243751525878906,21.356250762939453,9.412500381469727
1711523598450003000,3.5650029296875,-48.056251525878906,21.65625,9.300000190734863
1711523598470164700,3.585164794921875,-48.056251525878906,21.95625114440918,9.356250762939453
1711523598490260200,3.60526025390625,-48.187503814697266,21.600000381469727,9
1711523598510295600,3.625295654296875,-48.48750305175781,21.543750762939453,8.8125
1711523598530304000,3.645303955078125,-48.712501525878906,21.30000114440918,9
1711523598549986000,3.664986083984375,-48.900001525878906,21.11250114440918,9
1711523598569758700,3.6847587890625,-49.01250076293945,21.1875,8.943750381469727
1711523598589869600,3.70486962890625,-49.38750076293945,21.11250114440918,8.887500762939453
1711523598610116900,3.725116943359375,-49.687503814697266,21.11250114440918,8.700000762939453
1711523598630248000,3.745248046875,-49.85625076293945,21,8.512500762939453
1711523598650316500,3.765316650390625,-50.10000228881836,20.700000762939453,8.58750057220459
1711523598670328000,3.785328125,-50.10000228881836,20.287500381469727,8.512500762939453
1711523598690076200,3.805076171875,-50.156253814697266,20.212501525878906,8.287500381469727
1711523598709769700,3.824769775390625,-50.212501525878906,19.5,8.40000057220459
1711523598729845500,3.844845458984375,-50.51250076293945,19.087501525878906,8.287500381469727
1711523598750095000,3.86509521484375,-50.70000076293945,18.30000114440918,7.987500190734863
1711523598770214400,3.88521435546875,-50.94375228881836,18.056251525878906,7.987500190734863
1711523598790287400,3.905287353515625,-51.11250305175781,17.943750381469727,7.987500190734863
1711523598810312400,3.9253125,-51.41250228881836,17.756250381469727,7.612500190734863
1711523598830005000,3.9450048828125,-51.54375076293945,17.8125,7.612500190734863
1711523598849726000,3.964725830078125,-51.30000305175781,17.943750381469727,7.987500190734863
1711523598869838800,3.9848388671875,-50.88750076293945,17.887500762939453,7.912500381469727
1711523598890100000,4.005099853515625,-50.587501525878906,18,8.043750762939453
1711523598910249200,4.025249267578125,-50.212501525878906,17.887500762939453,7.612500190734863
1711523598930318800,4.04531884765625,-50.28750228881836,17.756250381469727,7.556250095367432
1711523598950296000,4.065296142578125,-50.51250076293945,17.756250381469727,7.800000190734863
1711523598970002700,4.085002685546875,-50.64375305175781,17.756250381469727,8.043750762939453
1711523598989745200,4.1047451171875,-50.812503814697266,17.64375114440918,8.043750762939453
1711523599010136800,4.12513671875,-50.88750076293945,17.887500762939453,8.15625
1711523599030246700,4.14524658203125,-50.75625228881836,17.8125,8.043750762939453
1711523599050300200,4.165300048828125,-50.64375305175781,17.64375114440918,7.987500190734863
1711523599070308000,4.18530810546875,-50.400001525878906,18,7.987500190734863
1711523599090234400,4.205234375,-50.10000228881836,17.8125,7.743750095367432
1711523599109867000,4.224866943359375,-49.98750305175781,17.887500762939453,7.500000476837158
1711523599129659000,4.244658935546875,-49.61250305175781,18,7.500000476837158
1711523599150008800,4.2650087890625,-49.80000305175781,17.8125,7.687500476837158
1711523599170193400,4.285193359375,-50.28750228881836,18.056251525878906,7.912500381469727
1711523599190288400,4.305288330078125,-50.45625305175781,17.887500762939453,8.100000381469727
1711523599210325500,4.325325439453125,-50.75625228881836,18.1875,8.287500381469727
1711523599230198000,4.345197998046875,-50.28750228881836,18.356250762939453,8.15625
1711523599249897000,4.36489697265625,-50.04375076293945,18.48750114440918,7.987500190734863
1711523599269954800,4.384954833984375,-49.85625076293945,18.95625114440918,8.34375
1711523599290139000,4.405138916015625,-49.61250305175781,19.012500762939453,8.34375
1711523599310246100,4.42524609375,-49.687503814697266,19.200000762939453,8.643750190734863
1711523599330298000,4.445298095703125,-49.500003814697266,19.012500762939453,9
1711523599350305800,4.465305908203125,-49.85625076293945,19.012500762939453,8.756250381469727
1711523599370096400,4.485096435546875,-49.85625076293945,19.012500762939453,8.643750190734863
1711523599389804000,4.504803955078125,-50.04375076293945,19.200000762939453,8.700000762939453
1711523599409933000,4.52493310546875,-50.28750228881836,19.443750381469727,8.58750057220459
1711523599430146000,4.54514599609375,-49.743751525878906,19.443750381469727,8.456250190734863
1711523599450257700,4.565257568359375,-49.98750305175781,19.61250114440918,8.287500381469727
1711523599470306800,4.585306884765625,-49.61250305175781,19.443750381469727,8.512500762939453
1711523599490321400,4.6053212890625,-49.500003814697266,19.5,8.700000762939453
1711523599510017800,4.625017822265625,-49.743751525878906,19.556251525878906,8.58750057220459
1711523599529733400,4.6447333984375,-49.61250305175781,19.556251525878906,8.887500762939453
1711523599550092500,4.665092529296875,-49.98750305175781,19.912500381469727,8.8125
1711523599570219300,4.68521923828125,-49.91250228881836,19.743751525878906,8.34375
1711523599590282800,4.70528271484375,-49.91250228881836,19.61250114440918,8.100000381469727
1711523599610307800,4.725307861328125,-50.343753814697266,19.14375114440918,8.100000381469727
1711523599630290400,4.74529052734375,-50.343753814697266,18.600000381469727,7.912500381469727
1711523599650005200,4.765005126953125,-50.64375305175781,18.356250762939453,8.043750762939453
1711523599669983000,4.78498291015625,-50.64375305175781,18.600000381469727,8.34375
1711523599690171600,4.805171630859375,-50.64375305175781,18.543750762939453,8.21250057220459
1711523599710259500,4.825259521484375,-50.94375228881836,18.543750762939453,8.287500381469727
1711523599730292500,4.84529248046875,-50.812503814697266,18.30000114440918,8.643750190734863
1711523599750300400,4.865300537109375,-50.88750076293945,17.700000762939453,8.456250190734863
1711523599770231800,4.885231689453125,-51.187503814697266,17.45625114440918,8.40000057220459
1711523599789889000,4.904888916015625,-51.11250305175781,17.043750762939453,8.34375
1711523599809906000,4.924906005859375,-51.41250228881836,16.98750114440918,7.987500190734863
1711523599830113500,4.945113525390625,-51.48750305175781,16.61250114440918,8.21250057220459
1711523599850058000,4.96505810546875,-51.000003814697266,16.61250114440918,8.512500762939453
1711523599870210800,4.9852109375,-50.94375228881836,16.856250762939453,8.700000762939453
1711523599890282200,5.0052822265625,-50.812503814697266,17.100000381469727,8.8125
1711523599910298000,5.025298095703125,-50.94375228881836,17.287500381469727,8.512500762939453
1711523599929903900,5.04490380859375,-51.30000305175781,17.587501525878906,8.700000762939453
1711523599949690600,5.064690673828125,-51.187503814697266,17.587501525878906,8.58750057220459
1711523599970139000,5.085138916015625,-51.243751525878906,17.64375114440918,8.700000762939453
1711523599990299600,5.105299560546875,-50.75625228881836,17.8125,8.700000762939453
1711523600009934000,5.12493408203125,-50.812503814697266,18.056251525878906,8.700000762939453
1711523600029720600,5.144720458984375,-50.812503814697266,18.30000114440918,8.700000762939453
1711523600049624300,5.164624267578125,-50.812503814697266,18.600000381469727,9.05625057220459
1711523600069599500,5.184599609375,-51.54375076293945,18.84375,9.356250762939453
1711523600089600000,5.20460009765625,-51.35625076293945,18.84375,9.300000190734863
1711523600109619200,5.224619140625,-51.35625076293945,19.012500762939453,9.65625
1711523600129632000,5.244632080078125,-51.30000305175781,19.256250381469727,9.600000381469727
1711523600149655800,5.26465576171875,-51.000003814697266,19.6875,9.487500190734863
1711523600169663000,5.2846630859375,-50.70000076293945,19.856250762939453,9.543750762939453
1711523600189673200,5.304673095703125,-50.75625228881836,20.100000381469727,9.356250762939453
1711523600209665000,5.3246650390625,-50.94375228881836,20.100000381469727,9.112500190734863
1711523600229663500,5.34466357421875,-50.64375305175781,20.043750762939453,9.112500190734863
1711523600249837600,5.364837646484375,-50.70000076293945,20.212501525878906,9.112500190734863
1711523600269947600,5.38494775390625,-50.812503814697266,20.34375,8.700000762939453
1711523600290047200,5.405047119140625,-50.70000076293945,20.756250381469727,8.756250381469727
1711523600310157600,5.425157470703125,-51.000003814697266,21.056251525878906,8.700000762939453
1711523600330021000,5.445021240234375,-51.11250305175781,21.30000114440918,8.34375
1711523600349745000,5.464744873046875,-51.056251525878906,21.11250114440918,7.800000190734863
1711523600370088200,5.485088134765625,-51.243751525878906,21.11250114440918,7.500000476837158
1711523600390239500,5.505239501953125,-50.88750076293945,20.887500762939453,7.387500286102295
1711523600410309400,5.525309326171875,-50.75625228881836,20.887500762939453,7.012500286102295
1711523600430332400,5.54533251953125,-51.000003814697266,21.1875,7.012500286102295
1711523600450264800,5.565264892578125,-50.587501525878906,21,6.543750286102295
1711523600469915100,5.5849150390625,-50.94375228881836,21.11250114440918,5.587500095367432
1711523600489685000,5.60468505859375,-51.243751525878906,20.756250381469727,5.34375
1711523600510026500,5.625026611328125,-51.243751525878906,20.400001525878906,4.912500381469727
1711523600530197200,5.645197265625,-51.656253814697266,20.212501525878906,4.612500190734863
1711523600550287400,5.665287353515625,-51.843753814697266,19.80000114440918,4.612500190734863
1711523600570313200,5.685313232421875,-51.78750228881836,19.61250114440918,4.387500286102295
1711523600590211600,5.705211669921875,-52.087501525878906,19.556251525878906,4.387500286102295
1711523600609853000,5.72485302734375,-52.312503814697266,19.200000762939453,4.087500095367432
1711523600629962500,5.74496240234375,-52.556251525878906,18.900001525878906,3.543750047683716
1711523600650157300,5.7651572265625,-52.98750305175781,18.412500381469727,3
1711523600670259200,5.78525927734375,-52.85625076293945,17.943750381469727,2.5875000953674316
1711523600690304300,5.80530419921875,-52.80000305175781,17.756250381469727,2.6437501907348633
1711523600710318300,5.825318359375,-52.85625076293945,17.587501525878906,2.8125
1711523600730132000,5.845132080078125,-52.687503814697266,17.756250381469727,3
1711523600749829000,5.8648291015625,-52.61250305175781,17.700000762939453,3
1711523600769955300,5.884955322265625,-52.98750305175781,17.64375114440918,3.0562500953674316
1711523600790144500,5.90514453125,-53.28750228881836,17.34375,3.1125001907348633
1711523600810252300,5.925252197265625,-53.70000076293945,17.100000381469727,3.3000001907348633
1711523600830303000,5.945302978515625,-53.70000076293945,17.043750762939453,3.6000001430511475
1711523600850308900,5.965308837890625,-53.75625228881836,17.043750762939453,3.656250238418579
1711523600870038300,5.985038330078125,-53.64375305175781,17.287500381469727,3.7125000953674316
1711523600889755400,6.00475537109375,-53.343753814697266,17.587501525878906,4.012500286102295
1711523600910102300,6.025102294921875,-53.812503814697266,18.056251525878906,4.3125
1711523600930232000,6.045232177734375,-53.88750076293945,18.30000114440918,4.743750095367432
1711523600950289200,6.0652890625,-54.000003814697266,18.11250114440918,4.987500190734863
1711523600970308400,6.085308349609375,-53.94375228881836,18.243751525878906,5.456250190734863
1711523600990310700,6.105310546875,-54.000003814697266,18.056251525878906,5.756250381469727
1711523601010045700,6.125045654296875,-53.587501525878906,18,5.887500286102295
1711523601029726500,6.1447265625,-52.98750305175781,18.11250114440918,5.887500286102295
1711523601049827800,6.164827880859375,-52.500003814697266,18.30000114440918,6.300000190734863
1711523601070085000,6.185085205078125,-51.712501525878906,18.48750114440918,6.712500095367432
1711523601090234600,6.205234619140625,-51.656253814697266,18.84375,7.500000476837158
1711523601110306300,6.225306396484375,-51.843753814697266,19.087501525878906,7.987500190734863
1711523601130274300,6.2452744140625,-52.14375305175781,19.443750381469727,8.287500381469727
1711523601149948000,6.264947998046875,-52.01250076293945,19.743751525878906,8.456250190734863
1711523601169713400,6.28471337890625,-51.843753814697266,19.6875,8.21250057220459
1711523601190021400,6.305021484375,-51.35625076293945,19.743751525878906,8.34375
1711523601210200600,6.32520068359375,-51.187503814697266,19.5,8.512500762939453
1711523601230284500,6.345284423828125,-51.30000305175781,19.443750381469727,8.58750057220459
1711523601250315500,6.3653154296875,-51.60000228881836,19.5,8.887500762939453
1711523601270219000,6.385218994140625,-52.38750076293945,19.3125,9.543750762939453
1711523601289849300,6.404849365234375,-52.743751525878906,19.3125,9.956250190734863
1711523601309648100,6.424648193359375,-52.80000305175781,19.012500762939453,10.3125
1711523601329993200,6.4449931640625,-52.91250228881836,18.84375,11.043750762939453
1711523601350183700,6.46518359375,-52.61250305175781,18.712501525878906,11.100000381469727
1711523601370281200,6.48528125,-52.85625076293945,18.1875,11.100000381469727
1711523601390320000,6.505320068359375,-53.10000228881836,17.700000762939453,10.912500381469727
1711523601410172700,6.525172607421875,-53.04375076293945,17.400001525878906,10.256250381469727
1711523601429871400,6.544871337890625,-53.10000228881836,17.400001525878906,10.08750057220459
1711523601449908500,6.564908447265625,-52.687503814697266,17.700000762939453,9.65625
1711523601470121500,6.58512158203125,-52.91250228881836,18,9.90000057220459
1711523601490248200,6.605248291015625,-52.687503814697266,18,10.3125
1711523601510299400,6.62529931640625,-52.743751525878906,17.45625114440918,10.387500762939453
1711523601530313000,6.64531298828125,-52.61250305175781,16.80000114440918,10.74375057220459
1711523601550076700,6.66507666015625,-52.687503814697266,16.3125,10.912500381469727
1711523601569780200,6.6847802734375,-52.743751525878906,15.71250057220459,10.74375057220459
1711523601589907700,6.70490771484375,-52.38750076293945,15.412500381469727,10.800000190734863
1711523601610130200,6.725130126953125,-52.98750305175781,15.356250762939453,10.987500190734863
1711523601630248000,6.745248046875,-52.85625076293945,14.943750381469727,11.043750762939453
1711523601650311200,6.765311279296875,-53.212501525878906,14.756250381469727,11.15625
1711523601670322000,6.785322021484375,-53.51250076293945,14.812500953674316,11.287500381469727
1711523601690004500,6.80500439453125,-53.587501525878906,14.887500762939453,11.287500381469727
1711523601709721900,6.824721923828125,-53.28750228881836,14.943750381469727,10.856250762939453
1711523601730065700,6.845065673828125,-53.28750228881836,14.943750381469727,10.800000190734863
1711523601750210800,6.8652109375,-53.10000228881836,15.05625057220459,11.15625
1711523601770287600,6.88528759765625,-52.98750305175781,15.412500381469727,11.40000057220459
1711523601790308400,6.905308349609375,-52.80000305175781,15.656250953674316,11.700000762939453
1711523601810285000,6.92528515625,-52.743751525878906,15.787500381469727,11.887500762939453
1711523601829978400,6.944978271484375,-53.04375076293945,15.843750953674316,11.756250381469727
1711523601849719300,6.96471923828125,-52.743751525878906,15.71250057220459,11.287500381469727
1711523601870067700,6.985067626953125,-52.743751525878906,15.90000057220459,10.856250762939453
1711523601890215000,7.00521484375,-52.25625228881836,16.556251525878906,10.800000190734863
1711523601910289400,7.025289306640625,-51.900001525878906,16.556251525878906,10.74375057220459
1711523601930319000,7.045319091796875,-51.900001525878906,16.6875,11.21250057220459
1711523601950235400,7.0652353515625,-51.843753814697266,16.556251525878906,11.58750057220459
1711523601969871000,7.08487109375,-51.656253814697266,16.087501525878906,11.512500762939453
1711523601990009300,7.10500927734375,-51.48750305175781,16.012500762939453,11.34375
1711523602010169600,7.125169677734375,-51.187503814697266,15.843750953674316,10.856250762939453
1711523602030259700,7.145259765625,-51.30000305175781,15.543750762939453,10.443750381469727
1711523602050302000,7.165302001953125,-51.54375076293945,15.600000381469727,10.256250381469727
1711523602070305000,7.185304931640625,-51.95625305175781,15.356250762939453,10.08750057220459
1711523602090174000,7.205174072265625,-52.20000076293945,14.887500762939453,9.71250057220459
1711523602109826800,7.224826904296875,-51.843753814697266,14.58750057220459,9.65625
1711523602129952500,7.244952392578125,-51.656253814697266,14.343750953674316,9.487500190734863
1711523602150154200,7.265154296875,-51.35625076293945,14.21250057220459,9.300000190734863
1711523602170259700,7.285259765625,-51.60000228881836,13.912500381469727,9.543750762939453
1711523602190306000,7.30530615234375,-52.01250076293945,13.856250762939453,9
1711523602210320100,7.325320068359375,-52.14375305175781,13.500000953674316,8.700000762939453
1711523602230093600,7.345093505859375,-52.25625228881836,13.312500953674316,8.58750057220459
1711523602249791500,7.36479150390625,-52.01250076293945,13.012500762939453,8.15625
1711523602269871000,7.38487109375,-51.78750228881836,12.90000057220459,7.987500190734863
1711523602290102800,7.405102783203125,-51.78750228881836,12.412500381469727,7.443750381469727
1711523602310237700,7.42523779296875,-52.01250076293945,12.05625057220459,7.200000286102295
1711523602330303200,7.44530322265625,-52.20000076293945,12,7.012500286102295
1711523602350315000,7.46531494140625,-52.25625228881836,11.643750190734863,7.256250381469727
1711523602370008600,7.485008544921875,-52.38750076293945,11.8125,7.312500476837158
1711523602389730800,7.504730712890625,-52.20000076293945,12.24375057220459,7.312500476837158
1711523602409834200,7.524834228515625,-52.087501525878906,11.58750057220459,7.312500476837158
1711523602430101200,7.545101318359375,-52.087501525878906,11.34375,7.200000286102295
1711523602450246100,7.56524609375,-52.14375305175781,10.912500381469727,7.687500476837158
1711523602470311200,7.585311279296875,-52.01250076293945,10.08750057220459,7.987500190734863
1711523602490308600,7.60530859375,-51.656253814697266,10.5,7.912500381469727
1711523602510015700,7.625015625,-51.30000305175781,10.800000190734863,7.987500190734863
1711523602529748200,7.644748291015625,-51.056251525878906,11.043750762939453,7.856250286102295
1711523602550052600,7.665052490234375,-50.88750076293945,11.58750057220459,7.987500190734863
1711523602570201000,7.685201171875,-51.000003814697266,11.456250190734863,8.21250057220459
1711523602590277600,7.705277587890625,-51.35625076293945,11.21250057220459,8.456250190734863
1711523602610309400,7.725309326171875,-51.30000305175781,11.15625,8.287500381469727
1711523602630238200,7.74523828125,-51.35625076293945,11.21250057220459,8.043750762939453
1711523602649878500,7.76487841796875,-51.187503814697266,11.456250190734863,7.987500190734863
1711523602669672700,7.784672607421875,-51.000003814697266,11.8125,7.800000190734863
1711523602690011100,7.80501123046875,-50.94375228881836,12.112500190734863,7.800000190734863
1711523602710199300,7.82519921875,-50.88750076293945,12.24375057220459,7.856250286102295
1711523602730287400,7.845287353515625,-51.30000305175781,12.300000190734863,7.912500381469727
1711523602750319400,7.8653193359375,-51.48750305175781,12.112500190734863,7.743750095367432
1711523602770199800,7.88519970703125,-51.60000228881836,11.756250381469727,7.743750095367432
1711523602789842200,7.90484228515625,-51.60000228881836,11.943750381469727,7.612500190734863
1711523602809921800,7.924921875,-51.11250305175781,12,7.800000190734863
1711523602830131700,7.945131591796875,-51.000003814697266,12.112500190734863,7.912500381469727
1711523602850244400,7.965244384765625,-51.000003814697266,12.356250762939453,7.612500190734863
1711523602870306800,7.985306884765625,-51.056251525878906,12.187500953674316,7.743750095367432
1711523602890318600,8.005318603515626,-51.30000305175781,11.887500762939453,7.443750381469727
1711523602910109700,8.025109619140625,-51.35625076293945,11.700000762939453,7.443750381469727
1711523602929805000,8.04480517578125,-51.41250228881836,11.456250190734863,7.612500190734863
1711523602949929200,8.06492919921875,-51.35625076293945,11.34375,7.800000190734863
1711523602970137600,8.0851376953125,-51.056251525878906,11.34375,7.800000190734863
1711523602990258400,8.105258544921876,-51.056251525878906,11.34375,7.743750095367432
1711523603010304300,8.12530419921875,-50.88750076293945,11.58750057220459,7.912500381469727
1711523603030315000,8.14531494140625,-50.64375305175781,11.456250190734863,7.743750095367432
1711523603050046000,8.1650458984375,-50.88750076293945,11.643750190734863,7.556250095367432
1711523603069753900,8.18475390625,-50.75625228881836,11.700000762939453,7.443750381469727
1711523603090095600,8.205095703125,-50.51250076293945,11.756250381469727,7.312500476837158
1711523603110223400,8.225223388671875,-50.812503814697266,11.943750381469727,7.312500476837158
1711523603130279700,8.24527978515625,-50.812503814697266,11.756250381469727,7.612500190734863
1711523603150310700,8.265310546875,-51.000003814697266,11.58750057220459,7.612500190734863
1711523603170297300,8.28529736328125,-51.843753814697266,11.287500381469727,7.687500476837158
1711523603190014500,8.305014404296875,-51.78750228881836,10.912500381469727,7.743750095367432
1711523603209695000,8.324695068359375,-51.656253814697266,11.043750762939453,7.912500381469727
1711523603230067000,8.34506689453125,-51.35625076293945,10.856250762939453,7.687500476837158
1711523603250211800,8.3652119140625,-51.000003814697266,10.6875,7.912500381469727
1711523603270288400,8.385288330078126,-51.243751525878906,10.55625057220459,7.912500381469727
1711523603290308900,8.405308837890624,-51.48750305175781,10.200000762939453,7.800000190734863
1711523603310251500,8.42525146484375,-51.30000305175781,10.3125,8.287500381469727
1711523603329911000,8.4449111328125,-51.243751525878906,10.6875,8.34375
1711523603349684200,8.464684326171875,-50.88750076293945,10.856250762939453,8.456250190734863
1711523603369994800,8.484994873046874,-50.812503814697266,11.15625,8.40000057220459
1711523603390184200,8.50518408203125,-51.000003814697266,11.456250190734863,8.34375
1711523603410283500,8.525283447265625,-51.11250305175781,11.287500381469727,8.100000381469727
1711523603430324700,8.54532470703125,-51.30000305175781,11.58750057220459,7.987500190734863
1711523603450221600,8.5652216796875,-50.94375228881836,11.643750190734863,7.800000190734863
1711523603469858600,8.584858642578125,-50.64375305175781,11.887500762939453,7.256250381469727
1711523603489661200,8.6046611328125,-50.587501525878906,12.543750762939453,6.900000095367432
1711523603509806600,8.624806640625,-50.587501525878906,12.71250057220459,6.787500381469727
1711523603530093000,8.645093017578125,-50.812503814697266,13.143750190734863,7.012500286102295
1711523603550255900,8.665255859375,-50.88750076293945,13.312500953674316,7.143750190734863
1711523603570318600,8.685318603515626,-50.400001525878906,13.612500190734863,7.200000286102295
1711523603590167600,8.70516748046875,-50.28750228881836,13.856250762939453,7.012500286102295
1711523603609873700,8.724873779296875,-49.98750305175781,13.856250762939453,6.656250476837158
1711523603629898500,8.7448984375,-49.85625076293945,13.55625057220459,6.600000381469727
1711523603650123500,8.76512353515625,-49.500003814697266,13.500000953674316,6.787500381469727
1711523603670246100,8.78524609375,-49.500003814697266,13.200000762939453,6.600000381469727
1711523603690302700,8.805302734375,-49.687503814697266,13.143750190734863,6.487500190734863
1711523603710321200,8.825321044921875,-49.743751525878906,13.687500953674316,6.056250095367432
1711523603730055700,8.8450556640625,-49.98750305175781,13.612500190734863,5.887500286102295
1711523603749806000,8.86480615234375,-49.61250305175781,14.287500381469727,5.587500095367432
1711523603769870300,8.884870361328124,-49.743751525878906,14.512500762939453,5.212500095367432
1711523603790119400,8.905119384765625,-49.98750305175781,14.40000057220459,5.34375
1711523603810246100,8.92524609375,-50.156253814697266,14.40000057220459,5.34375
1711523603830305500,8.945305419921874,-50.400001525878906,13.987500190734863,5.212500095367432
1711523603850313700,8.965313720703126,-50.212501525878906,13.74375057220459,4.987500190734863
1711523603870031000,8.985031005859375,-49.85625076293945,13.856250762939453,4.743750095367432
1711523603889751000,9.0047509765625,-49.743751525878906,14.043750762939453,4.6875
1711523603909899000,9.02489892578125,-49.80000305175781,14.21250057220459,4.256250381469727
1711523603930134500,9.045134521484375,-49.85625076293945,14.100000381469727,4.3125
1711523603950336500,9.06533642578125,-50.212501525878906,13.987500190734863,4.200000286102295
1711523603970192000,9.08519189453125,-50.28750228881836,13.856250762939453,3.9000000953674316
1711523603989856500,9.1048564453125,-50.04375076293945,13.856250762939453,3.9000000953674316
1711523604009668400,9.12466845703125,-50.28750228881836,13.687500953674316,3.7125000953674316
1711523604029594000,9.144593994140624,-50.343753814697266,13.612500190734863,3.7875001430511475
1711523604049584600,9.164584716796876,-50.45625305175781,13.612500190734863,4.087500095367432
1711523604069595400,9.184595458984376,-50.88750076293945,13.256250381469727,4.443750381469727
1711523604089617400,9.204617431640624,-50.75625228881836,13.312500953674316,4.800000190734863
1711523604109683500,9.224683349609375,-50.400001525878906,13.256250381469727,4.800000190734863
1711523604129704700,9.24470458984375,-50.400001525878906,13.012500762939453,4.912500381469727
1711523604149728300,9.264728271484374,-50.51250076293945,13.200000762939453,5.043750286102295
1711523604169674500,9.284674560546875,-50.51250076293945,13.200000762939453,5.043750286102295
1711523604189730300,9.304730224609376,-50.587501525878906,13.08750057220459,5.212500095367432
1711523604209769700,9.324769775390624,-50.812503814697266,13.143750190734863,5.212500095367432
1711523604229840400,9.34484033203125,-50.75625228881836,13.08750057220459,5.100000381469727
1711523604249981400,9.3649814453125,-50.70000076293945,13.012500762939453,5.287500381469727
1711523604269991000,9.384990966796876,-50.70000076293945,13.012500762939453,5.212500095367432
1711523604289852200,9.40485205078125,-50.64375305175781,13.387500762939453,5.400000095367432
1711523604310049800,9.4250498046875,-50.400001525878906,13.387500762939453,5.400000095367432
1711523604330233600,9.445233642578126,-50.343753814697266,13.612500190734863,5.15625
1711523604350310000,9.465309814453125,-50.212501525878906,13.856250762939453,5.512500286102295
1711523604370330000,9.485330078125,-50.212501525878906,13.612500190734863,5.512500286102295
1711523604390325800,9.50532568359375,-50.156253814697266,13.912500381469727,5.512500286102295
1711523604410069000,9.525069091796874,-49.98750305175781,14.043750762939453,5.587500095367432
1711523604429762600,9.544762451171875,-50.10000228881836,14.343750953674316,6.056250095367432
1711523604449840400,9.56484033203125,-49.98750305175781,14.512500762939453,6.487500190734863
1711523604470160000,9.585159912109376,-49.91250228881836,14.700000762939453,7.200000286102295
1711523604490357000,9.60535693359375,-49.98750305175781,14.700000762939453,7.500000476837158
1711523604510358800,9.62535888671875,-49.80000305175781,14.943750381469727,7.800000190734863
1711523604530337000,9.6453369140625,-49.80000305175781,14.943750381469727,8.15625
1711523604550005200,9.665005126953124,-49.85625076293945,15.05625057220459,7.987500190734863
1711523604569706500,9.68470654296875,-49.61250305175781,15.112500190734863,7.800000190734863
1711523604589824300,9.70482421875,-49.44375228881836,15.356250762939453,7.987500190734863
1711523604610090500,9.725090576171874,-49.25625228881836,15.412500381469727,7.987500190734863
1711523604630235600,9.745235595703125,-49.44375228881836,15.24375057220459,8.8125
1711523604650313000,9.76531298828125,-49.25625228881836,14.887500762939453,9.487500190734863
1711523604670295000,9.785294921875,-49.20000076293945,14.756250381469727,9.787500381469727
1711523604689984000,9.80498388671875,-49.25625228881836,14.756250381469727,10.200000762939453
1711523604709736400,9.824736328125,-48.95625305175781,15.187500953674316,10.143750190734863
1711523604730096000,9.84509619140625,-49.14375305175781,15.600000381469727,10.200000762939453
1711523604750229000,9.86522900390625,-49.44375228881836,15.543750762939453,10.443750381469727
1711523604770352000,9.88535205078125,-49.38750076293945,15.71250057220459,10.800000190734863
1711523604790339000,9.905339111328125,-49.556251525878906,15.412500381469727,11.100000381469727
1711523604810216400,9.925216552734375,-49.25625228881836,15.000000953674316,11.512500762939453
1711523604829845000,9.944844970703125,-49.312503814697266,14.812500953674316,11.700000762939453
1711523604849646600,9.964646484375,-49.14375305175781,14.643750190734863,11.643750190734863
1711523604869992700,9.98499267578125,-48.712501525878906,14.512500762939453,11.58750057220459
1711523604890186800,10.005186767578126,-49.01250076293945,14.643750190734863,11.512500762939453
1711523604910287400,10.025287353515624,-48.843753814697266,14.512500762939453,11.700000762939453
1711523604930316500,10.045316650390625,-48.712501525878906,14.21250057220459,12
1711523604950183700,10.06518359375,-49.087501525878906,14.100000381469727,12.187500953674316
1711523604969882000,10.084882080078126,-49.20000076293945,13.74375057220459,12.187500953674316
1711523604989938200,10.104938232421874,-49.44375228881836,13.912500381469727,12.187500953674316
1711523605010132700,10.1251328125,-49.85625076293945,13.856250762939453,12.543750762939453
1711523605030246000,10.145245849609376,-50.10000228881836,13.55625057220459,12.90000057220459
1711523605050300700,10.16530078125,-50.28750228881836,13.143750190734863,13.200000762939453
1711523605070309000,10.18530908203125,-50.45625305175781,12.487500190734863,13.612500190734863
1711523605090079500,10.20507958984375,-50.51250076293945,12.24375057220459,13.500000953674316
1711523605109784600,10.22478466796875,-50.51250076293945,12.05625057220459,13.856250762939453
1711523605129916400,10.24491650390625,-50.587501525878906,12.05625057220459,14.100000381469727
1711523605150140200,10.26514013671875,-50.51250076293945,12,14.58750057220459
1711523605170258000,10.2852578125,-50.28750228881836,11.700000762939453,15.187500953674316
1711523605190309600,10.3053095703125,-50.28750228881836,11.456250190734863,15.543750762939453
1711523605210325000,10.325324951171876,-50.10000228881836,11.15625,16.14375114440918
1711523605230021400,10.345021484375,-50.156253814697266,11.100000381469727,16.556251525878906
1711523605249735700,10.364735595703126,-50.400001525878906,10.256250381469727,17.8125
1711523605270085600,10.385085693359375,-50.10000228881836,9.543750762939453,18.84375
1711523605290216400,10.405216552734375,-50.10000228881836,8.700000762939453,19.6875
1711523605310282500,10.425282470703126,-49.556251525878906,7.612500190734863,19.98750114440918
1711523605330309000,10.44530908203125,-49.500003814697266,6.487500190734863,20.8125
1711523605350292500,10.46529248046875,-49.556251525878906,5.587500095367432,21.65625
1711523605370007800,10.4850078125,-49.14375305175781,4.200000286102295,22.443750381469727
1711523605389750300,10.504750244140626,-49.14375305175781,3.543750047683716,23.400001525878906
1711523605410084900,10.5250849609375,-48.95625305175781,2.887500047683716,24.187501907348633
1711523605430225700,10.5452255859375,-48.843753814697266,1.3875000476837158,24.712501525878906
1711523605450288400,10.565288330078126,-48.843753814697266,0.7875000238418579,25.256250381469727
1711523605470310100,10.58531005859375,-48.656253814697266,-0.35625001788139343,25.61250114440918
1711523605490245600,10.60524560546875,-48.41250228881836,-1.3875000476837158,25.687501907348633
1711523605509890600,10.624890625,-48.11250305175781,-1.8562500476837158,25.98750114440918
1711523605529667800,10.644667724609375,-48.056251525878906,-2.4562501907348633,25.687501907348633
1711523605549982200,10.664982177734375,-47.88750076293945,-2.9437501430511475,25.743751525878906
1711523605570174700,10.6851748046875,-48.056251525878906,-3.4875001907348633,25.743751525878906
1711523605590275600,10.705275634765625,-48.243751525878906,-3.9562501907348633,25.912500381469727
1711523605610317600,10.725317626953125,-48.35625076293945,-4.256250381469727,26.043750762939453
1711523605630180600,10.7451806640625,-48.60000228881836,-4.912500381469727,25.98750114440918
1711523605649884700,10.764884765625,-48.48750305175781,-5.212500095367432,25.98750114440918
1711523605669690000,10.784690185546875,-48.712501525878906,-5.8125,25.912500381469727
1711523605690183200,10.80518310546875,-48.656253814697266,-6.412500381469727,25.743751525878906
1711523605710110700,10.82511083984375,-48.78750228881836,-6.656250476837158,25.256250381469727
1711523605729825500,10.844825439453125,-48.95625305175781,-7.012500286102295,24.95625114440918
1711523605749672200,10.864672119140625,-48.95625305175781,-7.012500286102295,24.356250762939453
1711523605769612500,10.884612548828125,-49.38750076293945,-7.087500095367432,24.243751525878906
1711523605789605400,10.90460546875,-49.25625228881836,-7.312500476837158,24.11250114440918
1711523605809611800,10.92461181640625,-49.500003814697266,-7.443750381469727,24.187501907348633
1711523605829630700,10.944630615234376,-49.500003814697266,-7.856250286102295,24.543750762939453
1711523605849640400,10.964640380859375,-49.087501525878906,-8.287500381469727,24.787500381469727
1711523605869660000,10.984659912109375,-49.20000076293945,-8.456250190734863,24.900001525878906
1711523605889714200,11.004714111328125,-48.95625305175781,-9,25.256250381469727
1711523605909739000,11.024739013671875,-48.712501525878906,-9.356250762939453,25.443750381469727
1711523605929696300,11.0446962890625,-48.95625305175781,-10.012500762939453,25.443750381469727
1711523605949920000,11.064919921875,-48.60000228881836,-10.5,25.80000114440918
1711523605970079500,11.08507958984375,-48.41250228881836,-10.856250762939453,25.80000114440918
1711523605990199300,11.10519921875,-48,-11.40000057220459,25.80000114440918
1711523606010293200,11.125293212890625,-47.75625228881836,-11.287500381469727,25.98750114440918
1711523606030331100,11.1453310546875,-47.70000076293945,-11.21250057220459,26.100000381469727
1711523606050064100,11.165064208984376,-47.587501525878906,-11.21250057220459,26.287500381469727
1711523606069731300,11.1847314453125,-48,-10.800000190734863,26.45625114440918
1711523606090044700,11.205044677734374,-47.70000076293945,-10.856250762939453,27.000001907348633
1711523606110201900,11.225201904296876,-47.8125,-10.912500381469727,27.000001907348633
1711523606130275300,11.245275390625,-47.88750076293945,-10.74375057220459,26.943750381469727
1711523606150314200,11.265314208984375,-47.88750076293945,-10.6875,27.056251525878906
1711523606170258000,11.2852578125,-47.94375228881836,-10.5,26.587501525878906
1711523606189915000,11.304914794921874,-47.8125,-10.387500762939453,26.756250381469727
1711523606209696300,11.3246962890625,-47.45625305175781,-10.387500762939453,26.700000762939453
1711523606230034400,11.345034423828125,-47.587501525878906,-10.3125,26.45625114440918
1711523606250201900,11.365201904296875,-47.587501525878906,-10.08750057220459,26.64375114440918
1711523606270290000,11.3852900390625,-47.587501525878906,-9.71250057220459,26.343751907348633
1711523606290314200,11.405314208984375,-47.587501525878906,-9.300000190734863,26.212501525878906
1711523606310212000,11.425212158203125,-47.400001525878906,-9.1875,26.156251907348633
1711523606329854200,11.444854248046875,-47.64375305175781,-9.05625057220459,25.687501907348633
1711523606349963800,11.4649638671875,-47.70000076293945,-8.887500762939453,25.256250381469727
1711523606370147300,11.485147216796875,-47.94375228881836,-8.8125,24.843751907348633
1711523606390254000,11.505254150390625,-47.94375228881836,-8.512500762939453,24.712501525878906
1711523606410375700,11.525375732421875,-48.35625076293945,-8.512500762939453,24.843751907348633
1711523606430359600,11.545359619140624,-48.187503814697266,-8.643750190734863,25.012500762939453
1711523606450151400,11.5651513671875,-48.243751525878906,-8.58750057220459,24.95625114440918
1711523606469848000,11.58484814453125,-48.243751525878906,-8.943750381469727,25.012500762939453
1711523606489992400,11.604992431640625,-47.88750076293945,-8.8125,25.14375114440918
1711523606510161000,11.625160888671875,-47.94375228881836,-8.643750190734863,25.500001907348633
1711523606530256600,11.645256591796874,-47.94375228881836,-8.40000057220459,26.343751907348633
1711523606550301700,11.6653017578125,-47.75625228881836,-8.21250057220459,26.45625114440918
1711523606570306000,11.68530615234375,-47.34375,-7.912500381469727,27.000001907348633
1711523606590036000,11.705035888671874,-47.212501525878906,-7.800000190734863,27.11250114440918
1711523606609754000,11.724754150390625,-46.91250228881836,-7.743750095367432,26.943750381469727
1711523606629835500,11.74483544921875,-46.6875,-7.743750095367432,27.356250762939453
1711523606650099500,11.765099365234375,-46.85625076293945,-7.912500381469727,27.056251525878906
1711523606670243600,11.78524365234375,-47.28750228881836,-8.100000381469727,27.412500381469727
1711523606690427400,11.805427490234376,-46.91250228881836,-8.043750762939453,27.187501907348633
1711523606710396400,11.825396484375,-46.98750305175781,-8.100000381469727,26.943750381469727
1711523606730028500,11.845028564453125,-46.98750305175781,-8.21250057220459,26.887500762939453
1711523606749713000,11.864712890625,-46.85625076293945,-8.100000381469727,26.512500762939453
1711523606769819400,11.8848193359375,-47.15625,-8.34375,26.400001525878906
1711523606790081300,11.905081298828126,-47.10000228881836,-8.287500381469727,26.45625114440918
1711523606810233600,11.925233642578124,-46.80000305175781,-8.40000057220459,26.512500762939453
1711523606830307000,11.94530712890625,-46.80000305175781,-8.756250381469727,26.287500381469727
1711523606850276000,11.965276123046875,-46.91250228881836,-8.756250381469727,26.400001525878906
1711523606869969400,11.984969482421874,-46.98750305175781,-8.58750057220459,26.043750762939453
1711523606889726000,12.004725830078126,-46.91250228881836,-8.700000762939453,26.212501525878906
1711523606910027300,12.02502734375,-46.80000305175781,-8.456250190734863,26.512500762939453
1711523606930202600,12.04520263671875,-46.20000076293945,-8.512500762939453,26.587501525878906
1711523606950371300,12.065371337890625,-46.01250076293945,-8.700000762939453,27.000001907348633
1711523606970358800,12.08535888671875,-46.087501525878906,-8.58750057220459,26.887500762939453
1711523606990245600,12.10524560546875,-45.95625305175781,-8.700000762939453,26.887500762939453
1711523607009867300,12.1248671875,-46.087501525878906,-8.887500762939453,26.887500762939453
1711523607029652000,12.14465185546875,-45.84375,-9.1875,26.943750381469727
1711523607049990700,12.16499072265625,-45.60000228881836,-9.24375057220459,27.11250114440918
1711523607070297600,12.185297607421875,-45.30000305175781,-9.487500190734863,27.056251525878906
1711523607090344000,12.205343994140625,-45,-9.487500190734863,27.356250762939453
1711523607110346800,12.2253466796875,-45,-9.300000190734863,27.48750114440918
1711523607130059500,12.2450595703125,-45.056251525878906,-9.24375057220459,27.543750762939453
1711523607149808400,12.264808349609375,-45.30000305175781,-9.05625057220459,27.712501525878906
1711523607169892600,12.284892578125,-45.48750305175781,-8.943750381469727,27.48750114440918
1711523607190122500,12.30512255859375,-45.35625076293945,-9.05625057220459,27.48750114440918
1711523607210256000,12.325255859375,-45.35625076293945,-9,27.712501525878906
1711523607230316500,12.345316650390625,-44.88750076293945,-9.300000190734863,27.600000381469727
1711523607250324500,12.365324462890625,-44.75625228881836,-9.356250762939453,27.656251907348633
1711523607270083600,12.38508349609375,-45,-9.412500381469727,27.543750762939453
1711523607289772500,12.4047724609375,-44.75625228881836,-9.65625,27.187501907348633
1711523607309902600,12.424902587890625,-44.94375228881836,-9.787500381469727,26.943750381469727
1711523607330128000,12.4451279296875,-45,-10.08750057220459,26.756250381469727
1711523607350365700,12.46536572265625,-44.75625228881836,-9.84375,26.756250381469727
1711523607370378200,12.485378173828124,-44.587501525878906,-10.200000762939453,26.156251907348633
1711523607390352100,12.50535205078125,-44.587501525878906,-9.956250190734863,25.912500381469727
1711523607410012700,12.5250126953125,-44.70000076293945,-9.71250057220459,25.912500381469727
1711523607429719600,12.544719482421876,-44.51250076293945,-9.956250190734863,25.687501907348633
1711523607450059800,12.565059814453125,-44.8125,-9.90000057220459,25.743751525878906
1711523607470205400,12.585205322265624,-45,-9.71250057220459,25.743751525878906
1711523607490284000,12.605283935546876,-45.056251525878906,-9.487500190734863,25.856250762939453
1711523607510306800,12.625306884765624,-44.8125,-9.1875,25.61250114440918
1711523607530284300,12.6452841796875,-44.88750076293945,-9.112500190734863,25.61250114440918
1711523607550000600,12.665000732421875,-44.51250076293945,-9,25.61250114440918
1711523607569731300,12.6847314453125,-44.34375,-8.887500762939453,25.387500762939453
1711523607590002000,12.705001953125,-44.28750228881836,-8.8125,25.087501525878906
1711523607610180600,12.7251806640625,-43.91250228881836,-8.700000762939453,24.843751907348633
1711523607630276900,12.74527685546875,-44.10000228881836,-8.887500762939453,24.48750114440918
1711523607650318800,12.76531884765625,-43.98750305175781,-8.887500762939453,24.412500381469727
1711523607670239700,12.78523974609375,-44.34375,-8.700000762939453,24.600000381469727
1711523607689876500,12.80487646484375,-44.34375,-8.34375,24.787500381469727
1711523607709935400,12.824935302734374,-44.15625,-7.912500381469727,25.012500762939453
1711523607730203100,12.845203125,-43.98750305175781,-7.800000190734863,25.14375114440918
1711523607750282500,12.865282470703125,-43.85625076293945,-7.612500190734863,25.14375114440918
1711523607770315000,12.88531494140625,-43.61250305175781,-7.500000476837158,24.843751907348633
1711523607790310400,12.905310302734375,-43.556251525878906,-7.500000476837158,24.600000381469727
1711523607810174700,12.9251748046875,-43.38750076293945,-7.387500286102295,24.356250762939453
1711523607829847600,12.94484765625,-43.14375305175781,-7.200000286102295,24.187501907348633
1711523607849658000,12.964658203125,-43.14375305175781,-7.143750190734863,24.187501907348633
1711523607869802200,12.98480224609375,-43.01250076293945,-6.956250190734863,24.187501907348633
1711523607890091500,13.005091552734376,-43.01250076293945,-6.712500095367432,24.30000114440918
1711523607910264800,13.025264892578125,-43.01250076293945,-6.712500095367432,24.48750114440918
1711523607930109700,13.045109619140625,-43.20000076293945,-6.543750286102295,24.600000381469727
1711523607950031600,13.065031494140625,-43.38750076293945,-6.187500476837158,24.787500381469727
1711523607969800000,13.084800048828125,-43.61250305175781,-5.943750381469727,24.787500381469727
1711523607989661700,13.10466162109375,-43.80000305175781,-5.700000286102295,24.712501525878906
1711523608010067200,13.125067138671875,-43.5,-5.643750190734863,24.543750762939453
1711523608030014500,13.145014404296875,-43.3125,-5.700000286102295,24.30000114440918
1711523608049797600,13.164797607421875,-43.3125,-5.8125,24.356250762939453
1711523608069671400,13.18467138671875,-43.087501525878906,-6.112500190734863,24.11250114440918
1711523608089630700,13.204630615234375,-43.087501525878906,-6.187500476837158,24.30000114440918
1711523608109619500,13.224619384765624,-43.3125,-6.243750095367432,24.243751525878906
1711523608129619700,13.24461962890625,-42.95625305175781,-6.356250286102295,23.756250381469727
1711523608149647400,13.2646474609375,-43.087501525878906,-6.056250095367432,23.756250381469727
1711523608169654800,13.28465478515625,-43.25625228881836,-6.243750095367432,23.400001525878906
1711523608189661400,13.304661376953124,-43.25625228881836,-6.112500190734863,23.587501525878906
1711523608209683500,13.324683349609375,-43.20000076293945,-5.887500286102295,23.887500762939453
1711523608229766100,13.34476611328125,-43.5,-6.112500190734863,24
1711523608249667600,13.36466748046875,-43.44375228881836,-5.756250381469727,24.243751525878906
1711523608269806600,13.384806640625,-43.25625228881836,-5.943750381469727,24.187501907348633
1711523608289982700,13.404982666015625,-43.20000076293945,-6,24.30000114440918
1711523608310120200,13.4251201171875,-42.84375,-5.700000286102295,24.356250762939453
1711523608330227500,13.4452275390625,-42.65625,-5.887500286102295,24.11250114440918
1711523608350248700,13.465248779296875,-42.95625305175781,-5.700000286102295,24.412500381469727
1711523608369937000,13.48493701171875,-42.95625305175781,-5.700000286102295,24.712501525878906
1711523608389723400,13.504723388671875,-43.14375305175781,-6.112500190734863,24.95625114440918
1711523608410072000,13.525072021484375,-43.25625228881836,-6,25.80000114440918
1711523608430232600,13.545232666015625,-42.54375076293945,-5.887500286102295,25.80000114440918
1711523608450077700,13.56507763671875,-42.60000228881836,-5.943750381469727,25.80000114440918
1711523608470197200,13.585197265625,-42.243751525878906,-5.587500095367432,25.743751525878906
1711523608490155000,13.605155029296874,-42.243751525878906,-5.587500095367432,25.387500762939453
1711523608509833500,13.62483349609375,-42.30000305175781,-5.700000286102295,25.312501907348633
1711523608529972200,13.64497216796875,-42.30000305175781,-5.700000286102295,25.387500762939453
1711523608550167800,13.665167724609375,-42.900001525878906,-5.456250190734863,25.387500762939453
1711523608570265900,13.685265869140625,-42.78750228881836,-5.212500095367432,25.61250114440918
1711523608590135000,13.705135009765625,-42.712501525878906,-4.912500381469727,25.856250762939453
1711523608610220300,13.72522021484375,-42.41250228881836,-4.743750095367432,25.80000114440918
1711523608630086000,13.7450859375,-41.94375228881836,-4.6875,26.287500381469727
1711523608649813500,13.7648134765625,-41.70000076293945,-4.556250095367432,26.45625114440918
1711523608669652000,13.78465185546875,-41.88750076293945,-4.6875,26.700000762939453
1711523608689987600,13.804987548828125,-41.88750076293945,-4.387500286102295,27.243751525878906
1711523608710197200,13.825197265625,-41.94375228881836,-3.9562501907348633,27.187501907348633
1711523608730161200,13.8451611328125,-41.75625228881836,-3.7875001430511475,27.543750762939453
1711523608750248200,13.865248291015625,-41.28750228881836,-3.656250238418579,27.900001525878906
1711523608770018300,13.885018310546876,-41.34375,-3.543750047683716,27.900001525878906
1711523608789755000,13.9047548828125,-41.400001525878906,-3.543750047683716,27.900001525878906
1711523608810108400,13.9251083984375,-41.70000076293945,-3.6000001430511475,28.012500762939453
1711523608830237700,13.94523779296875,-42,-3.543750047683716,28.012500762939453
1711523608850291500,13.96529150390625,-42.056251525878906,-3.7125000953674316,28.14375114440918
1711523608870307300,13.985307373046876,-41.8125,-3.9000000953674316,28.387500762939453
1711523608890307000,14.00530712890625,-41.88750076293945,-4.012500286102295,28.387500762939453
1711523608909972200,14.02497216796875,-41.64375305175781,-3.9562501907348633,28.256250381469727
1711523608929679600,14.0446796875,-41.587501525878906,-3.843750238418579,28.14375114440918
1711523608949804500,14.064804443359375,-42,-4.256250381469727,27.843751907348633
1711523608970083000,14.0850830078125,-41.88750076293945,-4.143750190734863,27.787500381469727
1711523608990245600,14.10524560546875,-42.30000305175781,-4.387500286102295,27.787500381469727
1711523609010311700,14.125311767578125,-42,-4.556250095367432,27.95625114440918
1711523609030283300,14.145283203125,-42.11250305175781,-4.556250095367432,27.95625114440918
1711523609049948700,14.16494873046875,-42.48750305175781,-4.800000190734863,28.14375114440918
1711523609069709300,14.184709228515626,-42.48750305175781,-4.743750095367432,28.087501525878906
1711523609090006300,14.20500634765625,-42.95625305175781,-4.612500190734863,28.012500762939453
1711523609110258000,14.2252578125,-42.900001525878906,-4.5,28.087501525878906
1711523609130310400,14.245310302734374,-43.25625228881836,-4.5,27.900001525878906
1711523609150332000,14.265331787109375,-43.3125,-4.443750381469727,28.087501525878906
1711523609170219300,14.28521923828125,-43.38750076293945,-4.800000190734863,28.087501525878906
1711523609189853700,14.304853759765624,-43.556251525878906,-4.800000190734863,28.256250381469727
1711523609209656300,14.32465625,-43.44375228881836,-4.987500190734863,28.387500762939453
1711523609229983700,14.344983642578125,-43.5,-5.34375,28.256250381469727
1711523609250182100,14.36518212890625,-43.5,-5.34375,28.443750381469727
1711523609270287400,14.385287353515626,-43.6875,-5.400000095367432,28.387500762939453
1711523609290319600,14.405319580078125,-43.85625076293945,-5.15625,28.387500762939453
1711523609310156800,14.42515673828125,-44.28750228881836,-4.987500190734863,28.200000762939453
1711523609329861000,14.444861083984375,-44.45625305175781,-4.612500190734863,27.900001525878906
1711523609349952800,14.464952880859375,-44.70000076293945,-4.256250381469727,27.48750114440918
1711523609370141700,14.4851416015625,-44.64375305175781,-3.9000000953674316,27.000001907348633
1711523609390252300,14.505252197265625,-44.45625305175781,-3.6000001430511475,26.700000762939453
1711523609410303000,14.525302978515626,-44.75625228881836,-3.3000001907348633,26.587501525878906
1711523609430319600,14.545319580078125,-44.587501525878906,-3.187500238418579,26.700000762939453
1711523609450055000,14.565054931640624,-44.400001525878906,-3.3000001907348633,26.64375114440918
1711523609469754600,14.584754638671875,-44.400001525878906,-2.887500047683716,27.48750114440918
1711523609489901600,14.604901611328126,-44.10000228881836,-2.8125,27.843751907348633
1711523609510125600,14.62512548828125,-44.212501525878906,-2.887500047683716,28.012500762939453
1711523609530028500,14.645028564453124,-44.587501525878906,-2.512500047683716,28.14375114440918
1711523609550185700,14.665185791015626,-44.587501525878906,-2.887500047683716,28.012500762939453
1711523609570264000,14.68526416015625,-44.587501525878906,-3.3000001907348633,27.712501525878906
1711523609589978000,14.70497802734375,-44.75625228881836,-3.356250047683716,27.787500381469727
1711523609609718500,14.724718505859375,-45,-3.4875001907348633,28.14375114440918
1711523609629830000,14.744829833984374,-45.48750305175781,-3.6000001430511475,28.087501525878906
1711523609650107400,14.765107421875,-45.712501525878906,-3.9000000953674316,27.95625114440918
1711523609670254800,14.7852548828125,-45.65625,-4.087500095367432,27.600000381469727
1711523609690319000,14.805319091796875,-45.54375076293945,-4.087500095367432,27.656251907348633
1711523609710292000,14.8252919921875,-45.35625076293945,-4.012500286102295,27.787500381469727
1711523609729986600,14.844986572265626,-45.11250305175781,-3.9000000953674316,27.843751907348633
1711523609749723400,14.864723388671875,-45.48750305175781,-3.7875001430511475,27.787500381469727
1711523609769612500,14.884612548828125,-45.65625,-3.9000000953674316,27.600000381469727
1711523609789971200,14.90497119140625,-45.60000228881836,-3.843750238418579,27.600000381469727
1711523609810190000,14.925190185546874,-45.78750228881836,-3.356250047683716,27.843751907348633
1711523609830301000,14.945301025390625,-45.243751525878906,-3.356250047683716,27.95625114440918
1711523609850252500,14.96525244140625,-45.11250305175781,-3.187500238418579,28.012500762939453
1711523609869888300,14.98488818359375,-45.1875,-3.0562500953674316,27.900001525878906
1711523609889688800,15.004688720703125,-45,-3.356250047683716,27.656251907348633
1711523609910052000,15.025052001953124,-44.88750076293945,-3.4875001907348633,27.712501525878906
1711523609930223400,15.045223388671875,-44.28750228881836,-3.656250238418579,28.14375114440918
1711523609950307800,15.065307861328124,-44.04375076293945,-3.843750238418579,28.856250762939453
1711523609970338800,15.0853388671875,-43.743751525878906,-3.9562501907348633,29.700000762939453
1711523609990195700,15.10519580078125,-43.61250305175781,-4.556250095367432,30.48750114440918
1711523610009878300,15.124878173828124,-43.91250228881836,-4.856250286102295,30.48750114440918
1711523610029638000,15.144637939453125,-43.743751525878906,-5.400000095367432,30.412500381469727
1711523610049968600,15.16496875,-44.15625,-5.887500286102295,30.412500381469727
1711523610070171100,15.185171142578126,-44.34375,-6.056250095367432,30.11250114440918
1711523610090053000,15.20505322265625,-44.51250076293945,-6.300000190734863,30.30000114440918
1711523610109971500,15.224971435546875,-44.75625228881836,-5.943750381469727,30.11250114440918
1711523610129923800,15.244923828125,-45,-5.587500095367432,30.056251525878906
1711523610149683500,15.264683349609374,-45.11250305175781,-5.043750286102295,30.056251525878906
1711523610170077400,15.285077392578126,-45.1875,-4.743750095367432,29.887500762939453
1711523610190348500,15.3053486328125,-45.1875,-4.987500190734863,29.887500762939453
1711523610210378800,15.325378662109374,-44.8125,-4.987500190734863,29.700000762939453
1711523610230383400,15.34538330078125,-45,-5.34375,29.64375114440918
1711523610250457000,15.36545703125,-45,-5.212500095367432,29.400001525878906
1711523610270153700,15.38515380859375,-45.056251525878906,-5.100000381469727,29.343751907348633
1711523610289813500,15.4048134765625,-45.54375076293945,-4.912500381469727,29.212501525878906
1711523610309623000,15.424623046875,-45.60000228881836,-4.612500190734863,29.212501525878906
1711523610330067000,15.44506689453125,-45.712501525878906,-4.856250286102295,29.587501525878906
1711523610349998000,15.464998046875,-45.48750305175781,-4.856250286102295,29.512500762939453
1711523610369775000,15.484775146484376,-45.1875,-5.100000381469727,29.700000762939453
1711523610389660400,15.504660400390625,-45,-5.287500381469727,29.756250381469727
1711523610409618000,15.524617919921875,-44.70000076293945,-5.34375,29.756250381469727
1711523610429628400,15.54462841796875,-44.75625228881836,-5.212500095367432,30.187501907348633
1711523610449630700,15.564630615234375,-45.056251525878906,-4.987500190734863,30.30000114440918
1711523610469907700,15.58490771484375,-45.11250305175781,-4.856250286102295,30.543750762939453
1711523610489788700,15.60478857421875,-45.41250228881836,-4.800000190734863,30.543750762939453
1711523610509704200,15.6247041015625,-45.48750305175781,-5.100000381469727,30.600000381469727
1711523610529666600,15.64466650390625,-45.41250228881836,-5.587500095367432,30.412500381469727
1711523610549659000,15.664658935546875,-45.41250228881836,-6.056250095367432,30.11250114440918
1711523610569646600,15.684646484375,-45.54375076293945,-6.487500190734863,30.056251525878906
1711523610589646000,15.70464599609375,-45.35625076293945,-7.012500286102295,30.056251525878906
1711523610609860900,15.72486083984375,-45.30000305175781,-7.312500476837158,30.48750114440918
1711523610629919700,15.744919677734375,-45.54375076293945,-7.912500381469727,30.712501525878906
1711523610650104600,15.7651044921875,-45.65625,-8.58750057220459,30.900001525878906
1711523610670033000,15.785032958984376,-45.95625305175781,-8.887500762939453,30.787500381469727
1711523610689863200,15.80486328125,-45.84375,-9.543750762939453,30.543750762939453
1711523610709994200,15.824994140625,-45.84375,-9.84375,30.48750114440918
1711523610730019600,15.84501953125,-45.95625305175781,-9.956250190734863,30.48750114440918
1711523610750205200,15.865205078125,-46.087501525878906,-10.200000762939453,30.412500381469727
1711523610770299000,15.885298828125,-46.3125,-10.387500762939453,30.11250114440918
1711523610790324000,15.905323974609376,-46.38750076293945,-10.387500762939453,30.000001907348633
1711523610810117400,15.925117431640626,-46.556251525878906,-10.6875,29.943750381469727
1711523610829810200,15.94481005859375,-46.38750076293945,-10.55625057220459,29.700000762939453
1711523610849952800,15.964952880859375,-46.61250305175781,-10.6875,29.756250381469727
1711523610869976000,15.98497607421875,-47.04375076293945,-10.5,29.587501525878906
1711523610890173400,16.00517333984375,-47.212501525878906,-10.256250381469727,29.756250381469727
1711523610910106600,16.025106689453125,-47.45625305175781,-10.08750057220459,29.587501525878906
1711523610930237200,16.0452373046875,-47.45625305175781,-9.84375,29.45625114440918
1711523610950010000,16.065010009765626,-47.51250076293945,-9.65625,29.512500762939453
1711523610969753900,16.08475390625,-47.75625228881836,-9.112500190734863,29.343751907348633
1711523610990119700,16.10511962890625,-48.056251525878906,-8.643750190734863,29.400001525878906
1711523611010242600,16.12524267578125,-48.35625076293945,-8.287500381469727,29.287500381469727
1711523611030299400,16.14529931640625,-48.41250228881836,-8.043750762939453,29.212501525878906
1711523611050318000,16.165318115234374,-48.656253814697266,-7.987500190734863,28.687501907348633
1711523611070296600,16.185296630859376,-48.843753814697266,-7.856250286102295,28.500001907348633
1711523611089960700,16.204960693359375,-48.843753814697266,-7.556250095367432,28.687501907348633
1711523611109668600,16.224668701171876,-48.78750228881836,-7.200000286102295,28.443750381469727
1711523611129793800,16.244793701171876,-48.843753814697266,-6.900000095367432,28.687501907348633
1711523611149913300,16.264913330078127,-48.95625305175781,-6.712500095367432,28.687501907348633
1711523611170157800,16.28515771484375,-49.14375305175781,-6.656250476837158,28.443750381469727
1711523611190350000,16.30535009765625,-49.38750076293945,-6.656250476837158,28.61250114440918
1711523611210313000,16.32531298828125,-49.312503814697266,-6.487500190734863,28.743751525878906
1711523611229980400,16.34498046875,-49.312503814697266,-6.487500190734863,28.687501907348633
1711523611249723100,16.36472314453125,-49.556251525878906,-6.300000190734863,28.912500381469727
1711523611270018800,16.385018798828124,-49.500003814697266,-6.243750095367432,28.687501907348633
1711523611290189300,16.405189208984375,-49.85625076293945,-6,28.80000114440918
1711523611310278100,16.425278076171875,-49.85625076293945,-5.400000095367432,28.856250762939453
1711523611330314800,16.445314697265626,-49.38750076293945,-5.15625,28.80000114440918
1711523611350210800,16.4652109375,-49.687503814697266,-5.100000381469727,29.043750762939453
1711523611369848800,16.484848876953127,-49.25625228881836,-5.212500095367432,28.98750114440918
1711523611389653500,16.504653564453125,-49.25625228881836,-5.887500286102295,29.156251907348633
1711523611409808100,16.52480810546875,-49.80000305175781,-6.187500476837158,29.400001525878906
1711523611429878500,16.54487841796875,-49.85625076293945,-6.412500381469727,29.212501525878906
1711523611450132500,16.565132568359374,-50.400001525878906,-7.200000286102295,29.043750762939453
1711523611470269700,16.585269775390625,-50.94375228881836,-7.556250095367432,28.856250762939453
1711523611490154000,16.605154052734374,-51.000003814697266,-7.743750095367432,28.312501907348633
1711523611509876000,16.6248759765625,-50.94375228881836,-8.287500381469727,28.312501907348633
1711523611529969200,16.64496923828125,-50.70000076293945,-8.100000381469727,28.387500762939453
1711523611550164000,16.6651640625,-49.91250228881836,-8.287500381469727,28.556251525878906
1711523611570262800,16.6852626953125,-49.743751525878906,-8.8125,28.98750114440918
1711523611590304000,16.705303955078126,-49.687503814697266,-9.24375057220459,29.100000381469727
1711523611610315000,16.72531494140625,-49.44375228881836,-9.65625,29.212501525878906
1711523611630047200,16.745047119140626,-49.25625228881836,-9.90000057220459,29.343751907348633
1711523611649754600,16.764754638671874,-49.500003814697266,-10.012500762939453,29.343751907348633
1711523611669885000,16.784885009765624,-49.500003814697266,-9.956250190734863,29.587501525878906
1711523611689896700,16.804896728515626,-49.85625076293945,-10.012500762939453,29.812501907348633
1711523611709960000,16.8249599609375,-50.04375076293945,-9.956250190734863,29.64375114440918
1711523611729945600,16.844945556640624,-49.85625076293945,-9.956250190734863,29.700000762939453
1711523611750154200,16.865154296875,-49.80000305175781,-9.956250190734863,29.512500762939453
1711523611770020000,16.88502001953125,-49.38750076293945,-10.143750190734863,29.64375114440918
1711523611789751000,16.9047509765625,-49.25625228881836,-10.443750381469727,29.887500762939453
1711523611810087200,16.925087158203127,-49.500003814697266,-10.5,29.887500762939453
1711523611830237200,16.9452373046875,-49.312503814697266,-10.443750381469727,30.30000114440918
1711523611850299400,16.96529931640625,-49.743751525878906,-10.55625057220459,30.48750114440918
1711523611870327800,16.985327880859376,-49.85625076293945,-10.55625057220459,30.656251907348633
1711523611890275800,17.00527587890625,-49.61250305175781,-10.800000190734863,30.712501525878906
1711523611909943300,17.024943359375,-49.44375228881836,-10.912500381469727,30.900001525878906
1711523611929701400,17.044701416015624,-48.95625305175781,-11.043750762939453,31.443750381469727
1711523611949836800,17.0648369140625,-48.35625076293945,-11.100000381469727,31.687501907348633
1711523611969916700,17.084916748046876,-48.187503814697266,-11.100000381469727,31.98750114440918
1711523611990153000,17.105153076171874,-48.187503814697266,-11.456250190734863,31.98750114440918
1711523612010271700,17.125271728515624,-48.243751525878906,-11.756250381469727,31.687501907348633
1711523612030229200,17.145229248046874,-48.843753814697266,-11.700000762939453,31.443750381469727
1711523612049906400,17.164906494140624,-48.95625305175781,-12,31.312501907348633
1711523612070031600,17.185031494140624,-48.78750228881836,-12.487500190734863,31.200000762939453
1711523612090248200,17.205248291015625,-48.78750228881836,-12.412500381469727,30.95625114440918
1711523612110307000,17.22530712890625,-48.656253814697266,-12.487500190734863,31.200000762939453
1711523612130323700,17.24532373046875,-48.78750228881836,-12.600000381469727,31.200000762939453
1711523612150150100,17.265150146484373,-49.01250076293945,-12.71250057220459,31.087501525878906
1711523612170074400,17.285074462890623,-48.900001525878906,-13.200000762939453,31.087501525878906
1711523612189829000,17.3048291015625,-48.900001525878906,-13.800000190734863,30.843751907348633
1711523612209632500,17.324632568359377,-48.712501525878906,-13.856250762939453,30.787500381469727
1711523612230051600,17.345051513671876,-48.95625305175781,-13.800000190734863,30.600000381469727
1711523612250224600,17.365224609375,-49.61250305175781,-13.856250762939453,30.30000114440918
1711523612270309000,17.38530908203125,-50.04375076293945,-13.912500381469727,29.943750381469727
1711523612290327600,17.40532763671875,-50.343753814697266,-14.343750953674316,29.45625114440918
1711523612309969200,17.42496923828125,-50.212501525878906,-14.643750190734863,29.156251907348633
1711523612329734700,17.444734619140625,-49.687503814697266,-14.756250381469727,28.98750114440918
1711523612349925600,17.464925537109377,-49.38750076293945,-15.05625057220459,28.743751525878906
1711523612369975000,17.48497509765625,-49.20000076293945,-15.412500381469727,28.443750381469727
1711523612390183000,17.505182861328127,-49.85625076293945,-15.956250190734863,28.256250381469727
1711523612410290000,17.5252900390625,-49.91250228881836,-16.5,28.312501907348633
1711523612430173000,17.5451728515625,-49.85625076293945,-16.912500381469727,28.012500762939453
1711523612449947600,17.56494775390625,-49.91250228881836,-17.043750762939453,28.012500762939453
1711523612469710000,17.5847099609375,-49.61250305175781,-16.61250114440918,27.900001525878906
1711523612489865000,17.604864990234375,-49.556251525878906,-16.5,27.787500381469727
1711523612510121200,17.625121337890626,-49.312503814697266,-16.3125,28.14375114440918
1711523612530038000,17.6450380859375,-49.38750076293945,-16.14375114440918,28.087501525878906
1711523612549974500,17.664974609375,-49.01250076293945,-16.087501525878906,28.087501525878906
1711523612570126800,17.685126953125,-49.20000076293945,-15.543750762939453,28.14375114440918
1711523612589938400,17.7049384765625,-49.38750076293945,-15.356250762939453,28.312501907348633
1711523612609763300,17.724763427734374,-48.900001525878906,-15.05625057220459,28.687501907348633
1711523612630075000,17.745074951171876,-48.95625305175781,-14.756250381469727,29.043750762939453
1711523612650237000,17.76523681640625,-48.843753814697266,-14.887500762939453,29.156251907348633
1711523612670305800,17.785305908203124,-48.95625305175781,-14.643750190734863,29.212501525878906
1711523612690325800,17.80532568359375,-49.500003814697266,-14.643750190734863,29.287500381469727
1711523612710245000,17.8252451171875,-49.556251525878906,-14.887500762939453,29.156251907348633
1711523612729871400,17.844871337890623,-49.44375228881836,-14.943750381469727,28.912500381469727
1711523612749658400,17.864658447265626,-49.25625228881836,-15.05625057220459,28.98750114440918
1711523612769798700,17.884798583984374,-48.843753814697266,-15.112500190734863,28.856250762939453
1711523612790071800,17.90507177734375,-48.78750228881836,-15.187500953674316,28.743751525878906
1711523612810231300,17.925231201171876,-48.78750228881836,-15.187500953674316,29.043750762939453
1711523612830307800,17.945307861328125,-48.95625305175781,-15.300000190734863,28.98750114440918
1711523612850099000,17.965098876953125,-49.14375305175781,-15.24375057220459,28.98750114440918
1711523612869847800,17.984847900390626,-49.20000076293945,-15.412500381469727,29.212501525878906
1711523612889948000,18.004947998046877,-49.01250076293945,-15.71250057220459,29.156251907348633
1711523612910151400,18.0251513671875,-48.60000228881836,-15.956250190734863,28.912500381469727
1711523612930267400,18.045267333984373,-48.243751525878906,-16.5,28.856250762939453
1711523612950310000,18.065309814453126,-48,-16.5,28.500001907348633
1711523612970153700,18.08515380859375,-47.75625228881836,-16.3125,28.387500762939453
1711523612990016300,18.105016357421874,-47.94375228881836,-16.14375114440918,28.387500762939453
1711523613009771800,18.124771728515626,-48.35625076293945,-15.90000057220459,28.387500762939453
1711523613029593300,18.14459326171875,-48.243751525878906,-15.90000057220459,28.387500762939453
1711523613049963800,18.1649638671875,-48.656253814697266,-16.012500762939453,28.687501907348633
1711523613070183200,18.18518310546875,-48.35625076293945,-16.012500762939453,28.80000114440918
1711523613090120700,18.20512060546875,-47.75625228881836,-15.90000057220459,28.61250114440918
1711523613110024000,18.22502392578125,-47.51250076293945,-15.843750953674316,29.100000381469727
1711523613129880600,18.244880615234376,-47.51250076293945,-15.90000057220459,29.043750762939453
1711523613149702000,18.264701904296874,-47.212501525878906,-15.843750953674316,29.343751907348633
1711523613170018300,18.285018310546874,-47.10000228881836,-16.3125,29.812501907348633
1711523613190209800,18.305209716796874,-46.91250228881836,-16.6875,29.943750381469727
1711523613210306000,18.32530615234375,-46.61250305175781,-16.80000114440918,29.943750381469727
1711523613230330400,18.345330322265625,-46.14375305175781,-17.15625,29.64375114440918
1711523613250313700,18.365313720703124,-45.712501525878906,-17.45625114440918,29.45625114440918
1711523613270028300,18.3850283203125,-45.65625,-17.212501525878906,29.64375114440918
1711523613289744600,18.40474462890625,-45.60000228881836,-17.100000381469727,29.756250381469727
1711523613309846500,18.424846435546876,-45.65625,-16.6875,30.000001907348633
1711523613330102000,18.44510205078125,-45.65625,-16.14375114440918,30.600000381469727
1711523613350240300,18.465240234375,-45.60000228881836,-16.256250381469727,30.412500381469727
1711523613370302200,18.48530224609375,-45.243751525878906,-16.200000762939453,30.356250762939453
1711523613390264600,18.5052646484375,-45.056251525878906,-16.3125,30.543750762939453
1711523613409883600,18.524883544921874,-45.056251525878906,-16.387500762939453,30.356250762939453
1711523613429686500,18.5446865234375,-44.94375228881836,-16.61250114440918,30.48750114440918
1711523613449821000,18.564821044921874,-45,-16.61250114440918,31.012500762939453
1711523613470167000,18.5851669921875,-44.75625228881836,-16.743751525878906,31.312501907348633
1711523613490191600,18.605191650390626,-44.45625305175781,-16.556251525878906,31.500001907348633
1711523613510457000,18.62545703125,-44.28750228881836,-16.200000762939453,31.500001907348633
1711523613530275000,18.645275146484376,-44.04375076293945,-16.3125,31.61250114440918
1711523613549876500,18.66487646484375,-44.10000228881836,-16.443750381469727,31.312501907348633
1711523613569664300,18.684664306640624,-44.10000228881836,-16.856250762939453,31.443750381469727
1711523613589589800,18.70458984375,-43.91250228881836,-17.212501525878906,31.856250762939453
1711523613609855200,18.724855224609374,-43.6875,-17.287500381469727,31.743751525878906
1711523613629742600,18.74474267578125,-43.01250076293945,-17.400001525878906,32.15625
1711523613649688300,18.764688232421875,-43.01250076293945,-17.100000381469727,31.912500381469727
1711523613669689600,18.784689697265627,-43.14375305175781,-16.856250762939453,31.912500381469727
1711523613689665500,18.80466552734375,-43.087501525878906,-16.912500381469727,32.10000228881836
1711523613709660200,18.82466015625,-43.087501525878906,-16.912500381469727,31.856250762939453
1711523613729742600,18.84474267578125,-42.900001525878906,-17.212501525878906,31.743751525878906
1711523613749764400,18.864764404296874,-42.54375076293945,-17.512500762939453,31.443750381469727
1711523613769823700,18.88482373046875,-42.41250228881836,-17.943750381469727,31.256250381469727
1711523613789923300,18.90492333984375,-42.35625076293945,-17.887500762939453,31.200000762939453
1711523613809898200,18.924898193359375,-41.8125,-18.243751525878906,30.95625114440918
1711523613829763800,18.944763916015624,-41.94375228881836,-18.30000114440918,30.95625114440918
1711523613849943600,18.964943603515625,-42,-18.600000381469727,30.543750762939453
1711523613870173700,18.985173583984373,-41.94375228881836,-19.200000762939453,30.187501907348633
1711523613890074400,19.005074462890626,-42.30000305175781,-19.256250381469727,30.056251525878906
1711523613909821700,19.02482177734375,-42,-19.61250114440918,29.64375114440918
1711523613930081000,19.0450810546875,-41.75625228881836,-19.443750381469727,29.287500381469727
1711523613949832200,19.064832275390625,-41.51250076293945,-19.5,28.98750114440918
1711523613969652500,19.084652587890623,-41.212501525878906,-19.80000114440918,29.100000381469727
1711523613990058800,19.105058837890624,-41.28750228881836,-19.743751525878906,29.043750762939453
1711523614010235400,19.1252353515625,-41.45625305175781,-19.6875,29.400001525878906
1711523614030143700,19.145143798828126,-41.45625305175781,-19.556251525878906,29.45625114440918
1711523614050253600,19.165253662109375,-41.70000076293945,-19.387500762939453,29.400001525878906
1711523614070251000,19.1852509765625,-41.75625228881836,-19.200000762939453,29.100000381469727
1711523614089942500,19.204942626953127,-41.28750228881836,-18.95625114440918,28.61250114440918
1711523614109717200,19.22471728515625,-41.587501525878906,-18.65625,28.387500762939453
1711523614130011100,19.24501123046875,-41.28750228881836,-18.412500381469727,27.95625114440918
1711523614149975300,19.264975341796877,-41.587501525878906,-18.30000114440918,27.787500381469727
1711523614170162400,19.285162353515624,-41.75625228881836,-18.412500381469727,27.656251907348633
1711523614189870600,19.30487060546875,-41.64375305175781,-18.543750762939453,27.48750114440918
1711523614209828900,19.324828857421874,-41.587501525878906,-18.600000381469727,27.656251907348633
1711523614229694200,19.344694091796875,-41.04375076293945,-18.65625,27.712501525878906
1711523614249649200,19.364649169921876,-40.91250228881836,-18.787500381469727,27.656251907348633
1711523614270025200,19.385025146484374,-41.04375076293945,-18.712501525878906,27.600000381469727
1711523614290231800,19.405231689453124,-40.98750305175781,-18.787500381469727,27.356250762939453
1711523614310324200,19.42532421875,-41.04375076293945,-18.900001525878906,27.356250762939453
1711523614330350800,19.445350830078127,-41.10000228881836,-19.14375114440918,27.356250762939453
1711523614350180000,19.46518017578125,-40.61250305175781,-19.087501525878906,27.48750114440918
1711523614369875000,19.484875,-40.44375228881836,-19.256250381469727,27.412500381469727
1711523614389977300,19.504977294921876,-40.01250076293945,-19.200000762939453,27.48750114440918
1711523614410160400,19.525160400390625,-39.78750228881836,-19.200000762939453,27.11250114440918
1711523614430265900,19.545265869140625,-39.900001525878906,-19.012500762939453,26.756250381469727
1711523614450304500,19.565304443359373,-39.95625305175781,-18.84375,26.400001525878906
1711523614470312700,19.585312744140627,-40.5,-18.48750114440918,26.043750762939453
1711523614490075000,19.605074951171876,-40.38750076293945,-18.243751525878906,26.043750762939453
1711523614509769700,19.624769775390625,-40.80000305175781,-18.1875,25.912500381469727
1711523614529857800,19.64485791015625,-40.91250228881836,-18.356250762939453,25.743751525878906
1711523614550104000,19.66510400390625,-40.85625076293945,-18.65625,25.387500762939453
1711523614570238500,19.685238525390623,-40.85625076293945,-19.200000762939453,25.200000762939453
1711523614590311400,19.7053115234375,-40.44375228881836,-19.5,24.843751907348633
1711523614610156800,19.72515673828125,-40.38750076293945,-19.912500381469727,24.543750762939453
1711523614629925400,19.74492529296875,-40.3125,-20.15625,24.30000114440918
1711523614649689000,19.764689208984375,-40.20000076293945,-20.700000762939453,23.64375114440918
1711523614669847000,19.784846923828123,-40.25625228881836,-21.243751525878906,23.587501525878906
1711523614689892600,19.804892578125,-40.01250076293945,-21.543750762939453,23.700000762939453
1711523614709920800,19.824920654296875,-39.78750228881836,-21.95625114440918,24.11250114440918
1711523614730145300,19.845145263671874,-39.712501525878906,-22.14375114440918,24.543750762939453
1711523614750244900,19.865244873046876,-39.60000228881836,-22.443750381469727,24.600000381469727
1711523614769947100,19.884947021484376,-39.54375076293945,-22.443750381469727,24.95625114440918
1711523614789731600,19.904731689453126,-39.48750305175781,-22.5,24.843751907348633
1711523614810049800,19.9250498046875,-39.243751525878906,-22.387500762939453,25.312501907348633
1711523614830219000,19.945218994140625,-39.056251525878906,-22.012500762939453,25.500001907348633
1711523614850293200,19.965293212890625,-39.35625076293945,-21.900001525878906,25.312501907348633
1711523614870328000,19.985328125,-39.41250228881836,-21.412500381469727,25.500001907348633
1711523614890244600,20.00524462890625,-39.35625076293945,-21.056251525878906,25.200000762939453
1711523614909879000,20.024879150390625,-39.60000228881836,-20.8125,25.087501525878906
1711523614929678600,20.0446787109375,-39.30000305175781,-20.512500762939453,25.256250381469727
1711523614949590000,20.064590087890625,-39.243751525878906,-20.15625,25.556251525878906
1711523614970022000,20.08502197265625,-39.30000305175781,-20.15625,25.687501907348633
1711523614990056000,20.105055908203123,-39.056251525878906,-19.98750114440918,26.156251907348633
1711523615010229200,20.125229248046875,-38.8125,-19.5,26.212501525878906
1711523615030185700,20.145185791015624,-38.51250076293945,-19.3125,26.287500381469727
1711523615049912300,20.164912353515625,-38.34375,-19.14375114440918,26.343751907348633
1711523615069985500,20.184985595703125,-38.15625,-19.3125,26.212501525878906
1711523615090167000,20.2051669921875,-37.85625076293945,-19.6875,26.400001525878906
1711523615110268400,20.225268310546873,-37.556251525878906,-20.043750762939453,26.700000762939453
1711523615130303000,20.245302978515625,-37.25625228881836,-19.856250762939453,27.056251525878906
1711523615150319000,20.265319091796876,-36.95625305175781,-19.61250114440918,27.600000381469727
1711523615170094600,20.285094482421876,-36.900001525878906,-19.5,27.95625114440918
1711523615189793300,20.304793212890626,-37.25625228881836,-19.200000762939453,28.312501907348633
1711523615209952500,20.324952392578126,-37.3125,-19.14375114440918,28.256250381469727
1711523615230149400,20.3451494140625,-37.6875,-19.14375114440918,28.200000762939453
1711523615250035700,20.36503564453125,-37.44375228881836,-18.84375,28.087501525878906
1711523615270185000,20.38518505859375,-37.44375228881836,-18.600000381469727,27.787500381469727
1711523615289865000,20.404864990234376,-37.98750305175781,-18.243751525878906,27.656251907348633
1711523615309782800,20.42478271484375,-37.91250228881836,-18.356250762939453,27.412500381469727
1711523615329662500,20.444662353515625,-38.587501525878906,-18.356250762939453,27.356250762939453
1711523615350089700,20.46508984375,-39.056251525878906,-18.543750762939453,27.356250762939453
1711523615370249700,20.485249755859375,-39,-18.600000381469727,27.48750114440918
1711523615390321400,20.5053212890625,-39.30000305175781,-18.48750114440918,27.543750762939453
1711523615410339000,20.525339111328126,-39.243751525878906,-18.543750762939453,26.756250381469727
1711523615430311000,20.545310791015623,-39.243751525878906,-18.712501525878906,26.512500762939453
1711523615450027800,20.56502783203125,-39.11250305175781,-18.900001525878906,26.343751907348633
1711523615469696300,20.5846962890625,-39.243751525878906,-18.65625,26.400001525878906
1711523615489591000,20.604591064453125,-39.41250228881836,-18.543750762939453,26.756250381469727
1711523615509957000,20.62495703125,-39.243751525878906,-18.48750114440918,27.30000114440918
1711523615530183000,20.645182861328124,-39.11250305175781,-18.600000381469727,27.000001907348633
1711523615550298600,20.665298583984374,-39.1875,-18.712501525878906,26.812501907348633
1711523615570275600,20.685275634765624,-39.1875,-18.787500381469727,26.887500762939453
1711523615589914600,20.70491455078125,-39.1875,-18.84375,26.756250381469727
1711523615609704200,20.7247041015625,-39.35625076293945,-18.65625,26.887500762939453
1711523615630007000,20.745007080078125,-39.30000305175781,-18.412500381469727,27.000001907348633
1711523615650199600,20.765199462890624,-39.41250228881836,-18.543750762939453,26.756250381469727
1711523615670290000,20.7852900390625,-39.78750228881836,-18.243751525878906,26.287500381469727
1711523615690322700,20.80532275390625,-40.01250076293945,-18.11250114440918,26.512500762939453
1711523615710214400,20.82521435546875,-40.087501525878906,-17.943750381469727,26.512500762939453
1711523615729851600,20.8448515625,-40.25625228881836,-17.45625114440918,26.512500762939453
1711523615749644800,20.864644775390627,-39.900001525878906,-17.287500381469727,26.512500762939453
1711523615769985000,20.884985107421876,-39.78750228881836,-17.043750762939453,26.64375114440918
1711523615790181600,20.905181640625,-39.95625305175781,-17.34375,26.943750381469727
1711523615810113300,20.92511328125,-39.84375,-17.64375114440918,27.11250114440918
1711523615830238500,20.945238525390625,-39.900001525878906,-17.8125,27.187501907348633
1711523615850160600,20.96516064453125,-39.900001525878906,-18.056251525878906,27.243751525878906
1711523615869866000,20.984865966796875,-40.20000076293945,-17.8125,27.543750762939453
1711523615889933300,21.004933349609374,-40.61250305175781,-17.756250381469727,27.712501525878906
1711523615910142700,21.025142822265625,-40.85625076293945,-17.400001525878906,28.14375114440918
1711523615930263300,21.04526318359375,-41.15625,-16.80000114440918,28.200000762939453
1711523615950308600,21.06530859375,-41.15625,-16.3125,27.843751907348633
1711523615970318300,21.085318359375,-41.15625,-15.656250953674316,27.712501525878906
1711523615990040000,21.1050400390625,-41.34375,-15.300000190734863,27.843751907348633
1711523616009741000,21.124740966796875,-41.400001525878906,-15.112500190734863,27.656251907348633
1711523616029877500,21.14487744140625,-41.28750228881836,-15.05625057220459,27.712501525878906
1711523616050119200,21.165119140625,-41.212501525878906,-15.05625057220459,27.787500381469727
1711523616070248200,21.185248291015625,-41.400001525878906,-15.112500190734863,27.543750762939453
1711523616090305300,21.20530517578125,-41.64375305175781,-14.643750190734863,27.600000381469727
1711523616110322200,21.225322265625,-42,-14.40000057220459,27.356250762939453
1711523616130059000,21.24505908203125,-41.94375228881836,-14.287500381469727,27.412500381469727
1711523616149733400,21.2647333984375,-41.400001525878906,-14.343750953674316,27.656251907348633
1711523616170053400,21.285053466796874,-41.45625305175781,-14.343750953674316,27.412500381469727
1711523616190204200,21.3052041015625,-41.34375,-14.512500762939453,27.543750762939453
1711523616210285300,21.325285400390626,-41.64375305175781,-14.40000057220459,27.243751525878906
1711523616230309000,21.34530908203125,-42.30000305175781,-14.043750762939453,27.187501907348633
1711523616250264800,21.365264892578125,-42.60000228881836,-14.100000381469727,27.48750114440918
1711523616269929000,21.384928955078124,-42.900001525878906,-13.612500190734863,27.787500381469727
1711523616289694200,21.404694091796873,-43.01250076293945,-13.443750381469727,28.256250381469727
1711523616310048800,21.425048828125,-42.48750305175781,-14.043750762939453,28.087501525878906
1711523616330210300,21.445210205078126,-42.1875,-14.100000381469727,27.843751907348633
1711523616350060300,21.465060302734376,-41.88750076293945,-14.643750190734863,27.787500381469727
1711523616370184400,21.485184326171876,-41.70000076293945,-15.000000953674316,27.95625114440918
1711523616390156800,21.50515673828125,-41.8125,-14.700000762939453,28.61250114440918
1711523616409841400,21.52484130859375,-41.51250076293945,-14.512500762939453,29.100000381469727
1711523616429675300,21.54467529296875,-41.45625305175781,-14.343750953674316,29.343751907348633
1711523616449996800,21.564996826171875,-41.28750228881836,-14.343750953674316,29.287500381469727
1711523616470195500,21.585195556640624,-41.10000228881836,-14.456250190734863,29.043750762939453
1711523616490358300,21.605358154296876,-41.10000228881836,-14.40000057220459,28.856250762939453
1711523616510356700,21.625356689453124,-41.28750228881836,-14.156250953674316,28.98750114440918
1711523616530182700,21.6451826171875,-41.28750228881836,-14.100000381469727,29.100000381469727
1711523616549867300,21.6648671875,-41.15625,-14.043750762939453,29.700000762939453
1711523616570007600,21.685007568359374,-41.15625,-14.043750762939453,30.187501907348633
1711523616590169000,21.705169189453127,-40.91250228881836,-13.912500381469727,30.600000381469727
1711523616610090200,21.72509033203125,-40.6875,-13.74375057220459,30.48750114440918
1711523616630208800,21.745208740234375,-40.5,-13.500000953674316,30.543750762939453
1711523616650282500,21.765282470703124,-40.44375228881836,-13.387500762939453,30.712501525878906
1711523616670069500,21.785069580078126,-40.38750076293945,-13.443750381469727,30.843751907348633
1711523616689782800,21.80478271484375,-40.3125,-13.387500762939453,31.087501525878906
1711523616709866200,21.8248662109375,-40.44375228881836,-13.500000953674316,31.14375114440918
1711523616730107400,21.845107421875,-40.80000305175781,-13.55625057220459,31.012500762939453
1711523616750246000,21.865245849609376,-41.15625,-13.55625057220459,31.012500762939453
1711523616770311200,21.885311279296875,-41.34375,-13.500000953674316,30.787500381469727
1711523616790321400,21.9053212890625,-41.45625305175781,-13.312500953674316,30.900001525878906
1711523616810002700,21.925002685546875,-41.587501525878906,-13.312500953674316,30.843751907348633
1711523616829718800,21.94471875,-40.91250228881836,-13.443750381469727,31.087501525878906
1711523616849843500,21.964843505859374,-40.85625076293945,-13.256250381469727,31.200000762939453
1711523616870098200,21.98509814453125,-40.80000305175781,-13.387500762939453,31.14375114440918
1711523616890246000,22.005245849609373,-40.6875,-13.312500953674316,31.387500762939453
1711523616910141200,22.02514111328125,-40.61250305175781,-13.800000190734863,31.200000762939453
1711523616930044200,22.045044189453126,-40.44375228881836,-14.456250190734863,31.14375114440918
1711523616949791700,22.064791748046876,-40.3125,-14.700000762939453,31.200000762939453
1711523616969652500,22.084652587890623,-40.20000076293945,-15.112500190734863,30.900001525878906
1711523616990030300,22.1050302734375,-40.44375228881836,-15.112500190734863,30.712501525878906
1711523617010219800,22.1252197265625,-40.91250228881836,-14.812500953674316,30.712501525878906
1711523617030137000,22.14513720703125,-41.15625,-14.887500762939453,30.787500381469727
1711523617050252300,22.165252197265627,-41.51250076293945,-15.112500190734863,30.712501525878906
1711523617070218200,22.18521826171875,-41.75625228881836,-14.887500762939453,30.95625114440918
1711523617089877000,22.204876953125,-41.70000076293945,-15.05625057220459,30.787500381469727
1711523617109685000,22.22468505859375,-42.056251525878906,-15.000000953674316,30.712501525878906
1711523617130035200,22.24503515625,-42.30000305175781,-14.887500762939453,30.356250762939453
1711523617150217000,22.265217041015624,-42.243751525878906,-15.356250762939453,30.11250114440918
1711523617170298600,22.285298583984375,-42.056251525878906,-15.487500190734863,30.356250762939453
1711523617190325800,22.30532568359375,-41.70000076293945,-15.600000381469727,30.187501907348633
1711523617209931500,22.324931640625,-41.51250076293945,-15.843750953674316,30.656251907348633
1711523617229755000,22.3447548828125,-41.51250076293945,-15.843750953674316,30.412500381469727
1711523617249930500,22.364930419921876,-41.75625228881836,-15.843750953674316,30.187501907348633
1711523617270224100,22.38522412109375,-42,-16.14375114440918,30.000001907348633
1711523617290311400,22.4053115234375,-42.11250305175781,-15.787500381469727,29.700000762939453
1711523617310330600,22.42533056640625,-42.056251525878906,-15.543750762939453,29.700000762939453
1711523617330326300,22.445326171875,-41.64375305175781,-15.487500190734863,30.056251525878906
1711523617350089700,22.46508984375,-41.45625305175781,-15.543750762939453,29.943750381469727
1711523617369783300,22.484783203125,-41.45625305175781,-15.412500381469727,30.30000114440918
1711523617389952000,22.504951904296874,-41.51250076293945,-15.300000190734863,30.30000114440918
1711523617410153200,22.5251533203125,-41.75625228881836,-15.356250762939453,30.000001907348633
1711523617430268000,22.545267822265625,-41.70000076293945,-15.112500190734863,30.11250114440918
1711523617450086000,22.5650859375,-41.45625305175781,-15.05625057220459,29.887500762939453
1711523617470192600,22.585192626953123,-41.587501525878906,-14.943750381469727,29.887500762939453
1711523617489959200,22.604959228515625,-42,-14.700000762939453,29.943750381469727
1711523617509724700,22.624724609375,-42.35625076293945,-14.512500762939453,29.887500762939453
1711523617530098200,22.64509814453125,-42.65625,-14.21250057220459,30.11250114440918
1711523617550238500,22.665238525390624,-42.712501525878906,-14.100000381469727,30.243751525878906
1711523617570296600,22.685296630859376,-42.243751525878906,-14.156250953674316,30.056251525878906
1711523617590313500,22.7053134765625,-42.41250228881836,-14.100000381469727,30.000001907348633
1711523617610300700,22.72530078125,-42.1875,-14.287500381469727,30.056251525878906
1711523617630017800,22.745017822265623,-42.11250305175781,-14.043750762939453,30.243751525878906
1711523617649760500,22.764760498046876,-42.056251525878906,-13.74375057220459,30.30000114440918
1711523617669847300,22.784847412109375,-42.056251525878906,-13.500000953674316,30.356250762939453
1711523617690100700,22.805100830078125,-42.35625076293945,-13.200000762939453,30.056251525878906
1711523617710025200,22.825025146484375,-42.243751525878906,-13.200000762939453,29.756250381469727
1711523617730183400,22.845183349609375,-42,-13.012500762939453,29.64375114440918
1711523617750213000,22.865213134765625,-42,-12.90000057220459,29.587501525878906
1711523617769906700,22.88490673828125,-41.94375228881836,-12.956250190734863,29.343751907348633
1711523617789701600,22.90470166015625,-42.35625076293945,-12.956250190734863,29.100000381469727
1711523617810005800,22.925005859375,-42.65625,-13.143750190734863,28.80000114440918
1711523617830197200,22.945197265625,-42.41250228881836,-13.08750057220459,28.443750381469727
1711523617850285800,22.965285888671875,-42.48750305175781,-13.143750190734863,28.743751525878906
1711523617870317000,22.985317138671874,-42.11250305175781,-13.312500953674316,28.80000114440918
1711523617890208000,23.0052080078125,-42,-13.687500953674316,29.100000381469727
1711523617909853200,23.024853271484375,-41.8125,-14.287500381469727,29.156251907348633
1711523617929654800,23.04465478515625,-41.70000076293945,-14.887500762939453,28.98750114440918
1711523617949986300,23.064986328125,-41.28750228881836,-15.000000953674316,28.98750114440918
1711523617970186000,23.08518603515625,-40.98750305175781,-15.112500190734863,28.743751525878906
1711523617990119400,23.105119384765626,-40.85625076293945,-15.000000953674316,28.856250762939453
1711523618009843700,23.12484375,-40.743751525878906,-14.756250381469727,28.80000114440918
1711523618029899500,23.1448994140625,-40.80000305175781,-14.58750057220459,28.61250114440918
1711523618049748700,23.164748779296875,-41.04375076293945,-14.58750057220459,28.80000114440918
1711523618069908000,23.184907958984375,-40.91250228881836,-14.643750190734863,28.912500381469727
1711523618090154000,23.205154052734375,-40.743751525878906,-14.156250953674316,29.212501525878906
1711523618110112800,23.22511279296875,-40.743751525878906,-14.40000057220459,29.287500381469727
1711523618130240800,23.24524072265625,-40.556251525878906,-14.043750762939453,29.287500381469727
1711523618150310000,23.265309814453126,-40.98750305175781,-13.55625057220459,29.212501525878906
1711523618170049000,23.285049072265625,-40.91250228881836,-13.800000190734863,29.156251907348633
1711523618189764000,23.30476416015625,-41.212501525878906,-13.800000190734863,28.98750114440918
1711523618209903000,23.324903076171875,-41.212501525878906,-13.687500953674316,28.98750114440918
1711523618229907200,23.3449072265625,-41.10000228881836,-13.987500190734863,28.856250762939453
1711523618249909000,23.364908935546875,-41.10000228881836,-13.687500953674316,28.98750114440918
1711523618269912600,23.38491259765625,-40.61250305175781,-13.800000190734863,29.156251907348633
1711523618290130200,23.405130126953125,-40.3125,-13.912500381469727,29.45625114440918
1711523618309993500,23.424993408203125,-40.25625228881836,-14.100000381469727,29.512500762939453
1711523618329732400,23.444732421875,-40.087501525878906,-14.343750953674316,29.287500381469727
1711523618350159000,23.4651591796875,-40.14375305175781,-14.343750953674316,29.212501525878906
1711523618370102300,23.485102294921877,-40.44375228881836,-14.58750057220459,28.98750114440918
1711523618390235600,23.505235595703127,-40.3125,-14.58750057220459,28.687501907348633
1711523618410128000,23.5251279296875,-40.25625228881836,-14.812500953674316,28.387500762939453
1711523618430180400,23.545180419921873,-40.087501525878906,-15.300000190734863,27.656251907348633
1711523618449902300,23.56490234375,-39.84375,-15.843750953674316,26.943750381469727
1711523618469695700,23.58469580078125,-40.01250076293945,-16.387500762939453,26.343751907348633
1711523618489838300,23.60483837890625,-40.556251525878906,-16.912500381469727,25.743751525878906
1711523618510110200,23.625110107421875,-41.10000228881836,-17.043750762939453,25.98750114440918
1711523618530259700,23.645259765625,-41.400001525878906,-17.212501525878906,25.743751525878906
1711523618550154000,23.665154052734376,-41.400001525878906,-16.856250762939453,25.80000114440918
1711523618570156300,23.68515625,-40.91250228881836,-16.443750381469727,25.912500381469727
1711523618589845500,23.704845458984376,-40.556251525878906,-16.256250381469727,25.743751525878906
1711523618610013700,23.725013671875,-40.087501525878906,-16.087501525878906,25.98750114440918
1711523618630184000,23.745183837890625,-40.01250076293945,-16.443750381469727,25.80000114440918
1711523618650284300,23.7652841796875,-39.78750228881836,-16.61250114440918,25.912500381469727
1711523618670316500,23.785316650390627,-39.712501525878906,-16.856250762939453,26.156251907348633
1711523618690149600,23.805149658203124,-40.01250076293945,-16.743751525878906,26.156251907348633
1711523618710072800,23.82507275390625,-39.65625,-16.912500381469727,26.287500381469727
1711523618729816300,23.84481640625,-39.54375076293945,-17.043750762939453,26.287500381469727
1711523618749663000,23.8646630859375,-39.30000305175781,-17.100000381469727,26.100000381469727
1711523618769772000,23.88477197265625,-38.94375228881836,-17.34375,26.100000381469727
1711523618790067200,23.905067138671875,-39,-16.6875,26.287500381469727
1711523618810236700,23.925236572265625,-39.056251525878906,-16.012500762939453,26.512500762939453
1711523618830316000,23.94531591796875,-39.243751525878906,-15.787500381469727,26.45625114440918
1711523618850063000,23.96506298828125,-39.243751525878906,-15.24375057220459,26.45625114440918
1711523618869779200,23.984779296875,-39,-15.412500381469727,26.156251907348633
1711523618889862400,24.0048623046875,-39,-15.187500953674316,25.856250762939453
1711523618910111500,24.025111572265626,-38.8125,-14.887500762939453,25.61250114440918
1711523618930256000,24.045255859375,-38.94375228881836,-14.700000762939453,25.687501907348633
1711523618950312400,24.0653125,-39.056251525878906,-14.512500762939453,26.043750762939453
1711523618970325800,24.08532568359375,-38.88750076293945,-14.343750953674316,26.212501525878906
1711523618990010600,24.1050107421875,-38.70000076293945,-14.343750953674316,26.45625114440918
1711523619009717800,24.1247177734375,-38.45625305175781,-13.987500190734863,26.156251907348633
1711523619029823200,24.1448232421875,-38.64375305175781,-13.987500190734863,25.80000114440918
1711523619050092800,24.1650927734375,-38.400001525878906,-13.856250762939453,25.743751525878906
1711523619070239200,24.1852392578125,-38.587501525878906,-13.800000190734863,25.856250762939453
1711523619090093300,24.20509326171875,-38.45625305175781,-13.800000190734863,25.61250114440918
1711523619110173000,24.2251728515625,-38.28750228881836,-13.387500762939453,25.556251525878906
1711523619129881300,24.24488134765625,-38.212501525878906,-13.256250381469727,25.443750381469727
1711523619149959200,24.264959228515625,-38.400001525878906,-12.787500381469727,25.200000762939453
1711523619169987000,24.284987060546875,-38.400001525878906,-12.656250953674316,25.387500762939453
1711523619190180000,24.30518017578125,-38.34375,-12.300000190734863,25.200000762939453
1711523619210284300,24.3252841796875,-38.587501525878906,-12.112500190734863,25.012500762939453
1711523619230145000,24.34514501953125,-38.45625305175781,-12.112500190734863,24.843751907348633
1711523619250153700,24.36515380859375,-38.28750228881836,-11.40000057220459,24.712501525878906
1711523619269863700,24.38486376953125,-38.34375,-10.987500190734863,24.787500381469727
1711523619290013700,24.405013671875,-38.400001525878906,-10.74375057220459,24.600000381469727
1711523619310045700,24.425045654296873,-38.400001525878906,-10.256250381469727,24.843751907348633
1711523619330261500,24.445261474609374,-38.587501525878906,-10.143750190734863,24.95625114440918
1711523619350359800,24.46535986328125,-38.587501525878906,-10.200000762939453,25.012500762939453
1711523619370353700,24.485353759765626,-38.34375,-10.200000762939453,25.443750381469727
1711523619390120000,24.505119873046876,-38.10000228881836,-10.5,25.312501907348633
1711523619409818000,24.524818115234375,-37.38750076293945,-10.74375057220459,25.312501907348633
1711523619429646000,24.54464599609375,-37.087501525878906,-10.912500381469727,25.387500762939453
1711523619450069800,24.56506982421875,-37.38750076293945,-11.043750762939453,25.387500762939453
1711523619470016000,24.58501611328125,-37.3125,-11.15625,25.312501907348633
1711523619489793300,24.604793212890623,-37.6875,-11.15625,25.200000762939453
1711523619509675500,24.624675537109376,-38.10000228881836,-10.987500190734863,25.256250381469727
1711523619529620700,24.644620849609375,-37.61250305175781,-10.612500190734863,25.14375114440918
1711523619549613600,24.664613525390624,-37.6875,-10.143750190734863,25.087501525878906
1711523619569617700,24.68461767578125,-37.556251525878906,-9.90000057220459,25.312501907348633
1711523619589631200,24.70463134765625,-36.95625305175781,-9.787500381469727,25.012500762939453
1711523619609647600,24.724647705078127,-37.087501525878906,-9.600000381469727,25.012500762939453
1711523619629651700,24.744651611328123,-36.900001525878906,-9.65625,24.712501525878906
1711523619649681400,24.764681396484374,-36.900001525878906,-9.356250762939453,24.48750114440918
1711523619669706500,24.78470654296875,-37.087501525878906,-8.943750381469727,24.48750114440918
1711523619689688300,24.804688232421874,-37.01250076293945,-8.512500762939453,24.48750114440918
1711523619709679400,24.824679443359376,-36.84375,-8.100000381469727,24.656251907348633
1711523619729894400,24.844894287109376,-36.78750228881836,-7.856250286102295,24.600000381469727
1711523619750073600,24.865073486328125,-36.65625,-7.987500190734863,24.712501525878906
1711523619770215700,24.885215576171873,-36.78750228881836,-8.21250057220459,24.543750762939453
1711523619790299400,24.90529931640625,-36.712501525878906,-8.456250190734863,24.30000114440918
1711523619810055200,24.92505517578125,-36.54375076293945,-8.456250190734863,24.187501907348633
1711523619829801200,24.94480126953125,-36.78750228881836,-8.287500381469727,24.056251525878906
1711523619849875700,24.964875732421874,-36.54375076293945,-7.987500190734863,24.543750762939453
1711523619870115800,24.98511572265625,-36.48750305175781,-7.443750381469727,24.712501525878906
1711523619890253300,25.00525341796875,-36.60000228881836,-7.443750381469727,24.712501525878906
1711523619910314200,25.025314208984376,-36.48750305175781,-7.556250095367432,24.900001525878906
1711523619930264800,25.045264892578125,-36.60000228881836,-7.443750381469727,24.243751525878906
1711523619949886000,25.064885986328125,-36.78750228881836,-7.612500190734863,24.056251525878906
1711523619969672400,25.08467236328125,-36.60000228881836,-7.500000476837158,24.243751525878906
1711523619989989600,25.10498974609375,-36.35625076293945,-7.443750381469727,23.943750381469727
1711523620010182000,25.125181884765624,-36.41250228881836,-7.800000190734863,24.11250114440918
1711523620030293000,25.14529296875,-36.60000228881836,-8.15625,23.887500762939453
1711523620050328600,25.16532861328125,-36.48750305175781,-8.58750057220459,23.45625114440918
1711523620070209800,25.185209716796876,-36.60000228881836,-8.643750190734863,23.45625114440918
1711523620089848800,25.204848876953125,-36.41250228881836,-8.643750190734863,23.34375
1711523620109654000,25.224654052734376,-36.41250228881836,-8.58750057220459,23.587501525878906
1711523620129981000,25.24498095703125,-36.712501525878906,-8.756250381469727,23.587501525878906
1711523620150189300,25.265189208984374,-36.712501525878906,-9.05625057220459,23.34375
1711523620170065200,25.285065185546873,-36.84375,-9.24375057220459,23.100000381469727
1711523620190200300,25.305200439453124,-36.65625,-9.543750762939453,23.043750762939453
1711523620210081500,25.32508154296875,-36.41250228881836,-9.412500381469727,23.15625
1711523620229824500,25.344824462890625,-36.48750305175781,-9.412500381469727,23.15625
1711523620249933600,25.36493359375,-36.48750305175781,-9.65625,23.212501525878906
1711523620270150700,25.385150634765626,-36.84375,-9.300000190734863,23.15625
1711523620290262000,25.405261962890624,-37.01250076293945,-9.24375057220459,23.043750762939453
1711523620310308900,25.425308837890626,-36.900001525878906,-8.887500762939453,22.98750114440918
1711523620330321200,25.445321044921876,-36.900001525878906,-8.700000762939453,22.743751525878906
1711523620350033000,25.465032958984374,-36.900001525878906,-8.756250381469727,22.61250114440918
1711523620369748000,25.484748046875,-36.712501525878906,-8.643750190734863,22.14375114440918
1711523620389895400,25.5048955078125,-36.900001525878906,-8.643750190734863,22.087501525878906
1711523620410128400,25.52512841796875,-36.84375,-8.34375,22.012500762939453
1711523620430262000,25.545261962890624,-36.84375,-8.40000057220459,21.84375
1711523620450141200,25.56514111328125,-36.78750228881836,-8.34375,22.200000762939453
1711523620470238000,25.585238037109374,-36.35625076293945,-8.34375,22.200000762939453
1711523620490029600,25.605029541015625,-36.48750305175781,-8.21250057220459,22.14375114440918
1711523620509734400,25.624734375,-36.30000305175781,-8.100000381469727,22.256250381469727
1711523620530064600,25.645064697265624,-36.056251525878906,-7.500000476837158,21.95625114440918
1711523620550218500,25.665218505859375,-36.1875,-7.556250095367432,21.712501525878906
1711523620570287000,25.685287109375,-35.94375228881836,-7.312500476837158,21.65625
1711523620590310400,25.705310302734375,-36.11250305175781,-7.012500286102295,21.600000381469727
1711523620610267400,25.725267333984377,-36.84375,-7.143750190734863,21.412500381469727
1711523620629941000,25.74494091796875,-37.14375305175781,-6.787500381469727,21.543750762939453
1711523620649702400,25.764702392578126,-37.25625228881836,-6.600000381469727,21.48750114440918
1711523620670054400,25.785054443359375,-37.743751525878906,-6.412500381469727,21.412500381469727
1711523620690211800,25.8052119140625,-37.3125,-6.187500476837158,21.30000114440918
1711523620710122200,25.825122314453125,-37.5,-5.887500286102295,21.356250762939453
1711523620730230000,25.84522998046875,-37.44375228881836,-5.887500286102295,21.356250762939453
1711523620750022400,25.8650224609375,-36.84375,-6,21.1875
1711523620769765400,25.884765380859374,-37.14375305175781,-6,21.243751525878906
1711523620789962500,25.90496240234375,-37.14375305175781,-5.643750190734863,20.943750381469727
1711523620810170400,25.92517041015625,-37.087501525878906,-5.456250190734863,20.587501525878906
1711523620830281700,25.94528173828125,-37.25625228881836,-5.100000381469727,20.34375
1711523620850317000,25.965317138671875,-37.14375305175781,-5.043750286102295,19.80000114440918
1711523620870147600,25.985147705078123,-37.14375305175781,-5.643750190734863,19.6875
1711523620890069500,26.005069580078125,-37.44375228881836,-5.756250381469727,19.6875
1711523620909823000,26.024822998046876,-37.6875,-6,19.6875
1711523620929674800,26.0446748046875,-37.91250228881836,-6,19.556251525878906
1711523620949774300,26.0647744140625,-37.98750305175781,-5.700000286102295,19.443750381469727
1711523620970072000,26.085072021484375,-37.80000305175781,-5.643750190734863,19.087501525878906
1711523620990244900,26.105244873046875,-37.85625076293945,-5.456250190734863,19.012500762939453
1711523621009919500,26.12491943359375,-38.04375076293945,-5.34375,19.3125
1711523621029845500,26.144845458984374,-38.15625,-5.512500286102295,19.3125
1711523621049686300,26.164686279296873,-38.212501525878906,-5.456250190734863,19.5
1711523621069841200,26.184841064453124,-38.28750228881836,-5.456250190734863,19.856250762939453
1711523621090122000,26.2051220703125,-38.10000228881836,-5.512500286102295,20.15625
1711523621110102800,26.225102783203123,-37.91250228881836,-5.400000095367432,19.912500381469727
1711523621130250500,26.24525048828125,-37.91250228881836,-5.512500286102295,20.043750762939453
1711523621150319600,26.265319580078124,-37.91250228881836,-5.643750190734863,19.98750114440918
1711523621170020000,26.28502001953125,-37.743751525878906,-5.700000286102295,19.80000114440918
1711523621189729300,26.304729248046876,-37.5,-5.700000286102295,19.61250114440918
1711523621209618000,26.324617919921874,-37.556251525878906,-5.887500286102295,19.6875
1711523621229975800,26.344975830078123,-37.556251525878906,-6.112500190734863,19.556251525878906
1711523621249970000,26.364969970703125,-37.556251525878906,-6.300000190734863,19.6875
1711523621270178800,26.3851787109375,-37.98750305175781,-6.712500095367432,20.043750762939453
1711523621290246100,26.40524609375,-37.743751525878906,-6.600000381469727,19.98750114440918
1711523621309945600,26.424945556640626,-37.3125,-6.712500095367432,20.100000381469727
1711523621329730600,26.44473046875,-37.38750076293945,-6.712500095367432,20.212501525878906
1711523621350051800,26.4650517578125,-36.95625305175781,-6.787500381469727,20.212501525878906
1711523621370040800,26.485040771484375,-37.01250076293945,-6.956250190734863,20.400001525878906
