time,seconds_elapsed,z,y,x
1711795430071476200,0.070476318359375,0.07333470080196856,-0.25444004049301144,-0.07687167015592568
1711795430081452300,0.080452392578125,0.16093056666851044,-0.2341585922256112,-0.022497051090793682
1711795430091428400,0.090428466796875,0.07101824055314064,-0.19694179124832153,0.03156531455423683
1711795430101404400,0.100404296875,-0.13586334542930126,-0.14811667780280113,0.032460765556618566
1711795430111380200,0.110380126953125,-0.3251578367948532,-0.08613704536035656,-0.05661739302324131
1711795430121356300,0.120356201171875,-0.37684301584661006,-0.12253799991011619,-0.1344587393283844
1711795430131332400,0.130332275390625,-0.29891689560115337,-0.14801906264722348,-0.17733384006200356
1711795430141307400,0.140307373046875,-0.08752046254277229,-0.16821721654534338,-0.14878745320383457
1711795430151283200,0.150283203125,-0.013735679885745047,-0.12685834732726214,-0.15034777958942577
1711795430161259500,0.160259521484375,-0.04783434884250164,-0.1167174770630896,-0.16102326818695292
1711795430171235300,0.1702353515625,-0.007608721438050269,-0.08786503819674253,-0.13504293242450802
1711795430181211100,0.180211181640625,-0.03563888413608074,-0.08704787659496069,0.10357092217691242
1711795430191187500,0.1901875,-0.034845687931776045,-0.1865722267948091,-0.17614156153751537
1711795430201162200,0.200162353515625,-0.04805938977003097,-0.16377368113994598,-0.01663392207790166
1711795430211138300,0.21013818359375,-0.11455167733132839,-0.16843948099389672,0.049789483231958
1711795430221114400,0.2201142578125,-0.1282575466006994,-0.15673793728426097,0.017340864770859478
1711795430231090400,0.23009033203125,-0.1113970126926899,-0.10506459480077028,-0.06169476935276761
1711795430241066500,0.24006640625,-0.09702478846907615,-0.09212167272791266,-0.09547259059101343
1711795430251042300,0.250042236328125,-0.106861122828722,-0.09999781293049455,-0.06188733278280124
1711795430261018400,0.260018310546875,-0.12051321608424186,-0.06744374306723475,-0.09607050168523565
1711795430270993200,0.2699931640625,-0.17204992657601834,-0.026580694542080164,-0.176251652582176
1711795430280969500,0.279969482421875,-0.11470189945697784,-0.015495090773701667,-0.23231382287545127
1711795430290945300,0.2899453125,-0.016412790140509604,-0.02360927751585841,-0.2426762817347422
1711795430300921300,0.29992138671875,0.048529929891228674,-0.0032531565770506856,-0.19751632146695627
1711795430310897400,0.3098974609375,0.05273088871240616,-0.012524988921731709,-0.08491683764932677
1711795430320873200,0.319873291015625,0.06332593248486519,-0.06879325798004865,0.021168715963326392
1711795430330849500,0.329849609375,0.042300680112838746,-0.16529124609604476,0.07650556765673681
1711795430340824300,0.33982421875,0.05338146157562732,-0.19449732070565223,0.11347708863606676
1711795430350800400,0.34980029296875,0.1343272219032049,-0.1908773766428232,0.10863014179524033
1711795430360776400,0.3597763671875,0.19482231487631796,-0.2111089944191277,0.1467204376714304
1711795430370752300,0.369752197265625,0.14877368040680886,-0.1527598274335265,0.06759637634567917
1711795430380728300,0.379728271484375,0.02522153501808643,-0.1265400751583278,-0.01289966745302081
1711795430390704400,0.389704345703125,-0.16678163078427313,-0.1441686708293855,-0.02269420849755406
1711795430400679400,0.399679443359375,-0.2715302915036678,-0.09581175941750407,-0.01792447334509343
1711795430410655200,0.4096552734375,-0.19667875639796256,-0.08504881173223257,-0.012680398679152131
1711795430420631300,0.41963134765625,-0.033278584745526314,-0.083405866830796,0.038630832493677734
1711795430430607400,0.429607421875,0.01718728164434433,-0.0712036801226437,0.043431729969382285
1711795430440583200,0.439583251953125,0.0981207670122385,-0.07420666133090853,0.03907293197168037
1711795430450559500,0.4495595703125,0.176177820160985,-0.0947048210889101,0.04261369158476591
1711795430460535300,0.459535400390625,0.20192367131412028,-0.07963847712129354,0.029858291440643368
1711795430470510300,0.46951025390625,0.19605273345410823,-0.3219843213252723,0.15752095915442332
1711795430480486400,0.479486328125,0.12108721657991409,-0.3442671725429594,0.1820782763764262
1711795430490462200,0.489462158203125,0.05808686278760433,-0.22100684970766304,0.09245386382434517
1711795430500438500,0.4994384765625,0.09685936877429485,-0.04885916184559464,0.02607583202617243
1711795430510414300,0.509414306640625,0.13192483693659304,-0.11072159764915704,-0.16941959633873774
1711795430520390400,0.519390380859375,0.09726385792195796,-0.11928498946353792,-0.15195804606396704
1711795430530366500,0.529366455078125,-0.10275076490044593,0.10409092746302485,-0.2810816531757824
1711795430540341500,0.539341552734375,-0.4108586826950311,0.18065262748748062,-0.20895051947729662
1711795430550317300,0.5493173828125,-0.5507219114154577,0.06543912524655461,-0.15388547046259043
1711795430560293400,0.55929345703125,-0.5278741197913884,0.028484043945372104,-0.09463500725571065
1711795430570269400,0.56926953125,-0.44989656161963937,0.0706331867583096,-0.040072117343172425
1711795430580245200,0.579245361328125,-0.22650573938488958,0.03430646648854017,-0.009680961134843527
1711795430590221300,0.58922119140625,-0.030837621334195136,-0.09379165176674722,-0.07621432962520047
1711795430600196400,0.5991962890625,0.11300386336743831,-0.2160324222959578,-0.09250563054420054
1711795430610172200,0.609172119140625,0.20180735145807266,-0.2249849595583975,-0.0996420126296114
1711795430620148500,0.6191484375,0.25109599076211453,-0.18342340737506746,-0.13108162757810204
1711795430630124300,0.629124267578125,0.15768296304941176,-0.12483867806792258,-0.07371546201417223
1711795430640100400,0.639100341796875,-0.028667291557788847,-0.1254369362220168,0.007966795894410461
1711795430650076400,0.649076416015625,-0.1533902342915535,-0.1728692801348865,0.004748372704023495
1711795430660052200,0.65905224609375,-0.09225099819600581,-0.23553119575306772,-0.04543480428694747
1711795430670027300,0.66902734375,-0.052204234489798544,-0.25260230367183684,-0.09287871077344752
1711795430680003300,0.67900341796875,0.007998597538471222,-0.20868775862157343,-0.06880452829273417
1711795430689979400,0.6889794921875,0.08140168740153313,-0.1431828746624291,-0.028531097957491872
1711795430699955200,0.698955078125,0.060497431060671805,-0.07743351442292332,0.03048984907614067
1711795430709931300,0.70893115234375,-0.0356143342167139,-0.028312048379331826,0.007637490874808282
1711795430719907300,0.7189072265625,0.10407119984924793,0.02145034591630101,0.013840711162798105
1711795430729882400,0.72888232421875,0.16086334665119648,-0.040277795983105893,-0.08690116160064935
1711795430739858400,0.7388583984375,0.12455810756087303,-0.10181523761600256,-0.024941256771981713
1711795430749834200,0.748834228515625,0.10982874046266078,-0.19556290411055086,-0.040569563737604765
1711795430759810600,0.758810546875,0.11344225478470325,-0.24194062440395353,-0.05535995857436209
1711795430769786400,0.768786376953125,-0.07437631880939007,-0.22860475749075412,0.028779309698054565
1711795430779762200,0.77876220703125,-0.21738953599333763,-0.22645605502426622,0.10956929494203067
1711795430789738500,0.788738525390625,-0.110441903924942,-0.22409049493670463,0.05525455283797346
1711795430799713300,0.79871337890625,0.153053549683094,-0.24482421701624987,-0.031105843816325068
1711795430809689300,0.808689453125,0.37402269772887226,-0.2895565081901848,-0.07761811374220996
1711795430819665400,0.81866552734375,0.49113224284946916,-0.30665318894162774,-0.0885291281286627
1711795430829641200,0.82864111328125,0.44567105287909503,-0.27897213194221254,-0.0706067097433377
1711795430839617300,0.8386171875,0.33075521841049194,-0.24696122904494403,-0.04540035402807407
1711795430849593300,0.84859326171875,0.16508301017284394,-0.2357836361441761,-0.025470550476247442
1711795430859568400,0.858568359375,-0.049016836625337595,-0.2567906222071498,0.00119210499455221
1711795430869544200,0.868544189453125,-0.1765337939918041,-0.27048341279923915,0.0057098016147036105
1711795430879520500,0.8785205078125,-0.19677754059731958,-0.25933614197149873,-0.040712442807015026
1711795430889496300,0.888496337890625,-0.2682359261333942,-0.2584711226399988,-0.04751918194610625
1711795430899472100,0.89847216796875,-0.3289028685420751,-0.24474925208389758,-0.05742678231052123
1711795430909448400,0.908448486328125,-0.21909750895500182,-0.2321360003568232,-0.07678610163116827
1711795430919424300,0.91842431640625,-0.008487257838249206,-0.20991890785172582,-0.038356431432510725
1711795430929399300,0.9283994140625,0.20479718092381952,-0.21287695393972098,-0.00009654657649807631
1711795430939375400,0.938375244140625,0.2891770073533058,-0.28305224086269737,0.049905478861019946
1711795430949351400,0.948351318359375,0.3358668623358011,-0.35555151375383137,-0.012084042504488024
1711795430959327200,0.9583271484375,0.3266132963001728,-0.31035335863381625,-0.03736917852740734
1711795430969303300,0.96830322265625,0.17672376360595224,-0.2314231759123504,0.0017689978460985003
1711795430979280000,0.97827978515625,-0.010935235512256622,-0.23387867930568754,0.02018838598935399
1711795430989255000,0.9882548828125,-0.08803133467435836,-0.27450075868181883,0.044846688500954766
1711795430999231000,0.99823095703125,-0.03877718216180801,-0.29524923993907864,0.06575961677203886
1711795431009206800,1.008206787109375,-0.0423591323018074,-0.26864779486991464,0.14099646140090188
1711795431019182800,1.018182861328125,-0.02215162605345249,-0.2581524120796472,0.14510282814064993
1711795431029159000,1.028158935546875,0.016546061131358147,-0.2957509058509022,0.15833994738711044
1711795431039135000,1.038135009765625,0.01865209349989891,-0.3373283862557262,0.2089246909162961
1711795431049110800,1.04811083984375,0.029152444726228712,-0.3482672019645571,0.24059163921410218
1711795431059085800,1.0580859375,0.11838789449334144,-0.4219865912351757,0.23758993664747102
1711795431069062000,1.068061767578125,0.23632862974107263,-0.45888190517313776,0.24797289030551908
1711795431079038000,1.078037841796875,0.382604063591361,-0.4208859365168959,0.2939207860806025
1711795431089013800,1.088013671875,0.4414391143977642,-0.4011674558945,0.25998901638966054
1711795431098990000,1.097989990234375,0.3411123617738485,-0.4290440354660153,0.24950256582451982
1711795431108966000,1.1079658203125,0.0742524001687765,-0.44441462307721374,0.3090686160529032
1711795431118941000,1.11794091796875,-0.23566227478682994,-0.46617608076930045,0.2729271161569282
1711795431128917000,1.1279169921875,-0.536994999358058,-0.5088888488143682,0.22394383474132046
1711795431138892800,1.137892822265625,-0.6176560975253582,-0.5676933583520353,0.15798634817646814
1711795431148868900,1.147868896484375,-0.4847931029558181,-0.5840249730151146,0.13455461918460204
1711795431158845000,1.157844970703125,-0.2967272766023874,-0.6211354640737176,0.13355115949679167
1711795431168820700,1.16782080078125,-0.17521569713056087,-0.680784023220092,0.19768024332439527
1711795431178796800,1.177796875,-0.1450111130028963,-0.7760270428389311,0.21233535787630825
1711795431188771800,1.187771728515625,-0.1111176112294197,-0.8493475689850747,0.18109573161248116
1711795431198748000,1.197747802734375,-0.1223544600367546,-0.9098629010286181,0.19252762806788085
1711795431208723700,1.2077236328125,-0.12326397609710693,-0.961610112465918,0.1418747786053922
1711795431218700000,1.217699951171875,-0.055039750176668165,-1.017662108425051,0.13364619910279288
1711795431228675800,1.22767578125,0.058252282482385634,-1.0300857558641583,0.1411462542682886
1711795431238652000,1.23765185546875,0.14443828155100344,-0.9950018752623349,0.1728892817432992
1711795431248627000,1.247626953125,0.08112754663527011,-0.9777774034127592,0.23045469620637593
1711795431258602800,1.257602783203125,-0.02287234154343605,-0.9644457742832601,0.2544720430664718
1711795431268578800,1.267578857421875,-0.22490414940714834,-0.8968447217624634,0.2527497858511284
1711795431278555000,1.277554931640625,-0.43714112494289875,-0.8449860858399421,0.22970857228050007
1711795431288531000,1.287531005859375,-0.480572854912281,-0.8614694569986313,0.1612650045209564
1711795431298507000,1.297507080078125,-0.380951620209217,-0.8756950392931699,0.1516363398289308
1711795431308482800,1.30748291015625,-0.211844176825881,-0.8638619781583547,0.22231564901759845
1711795431318457900,1.317457763671875,-0.03975099563002586,-0.8514616385295987,0.25950070314975454
1711795431328434000,1.327433837890625,0.18429975181818006,-0.8696386618636548,0.2793903756205924
1711795431338410000,1.337409912109375,0.36764497939050195,-0.8974640227045864,0.295183864818979
1711795431348385800,1.3473857421875,0.4196212503433227,-0.9408899805203079,0.3032187027146108
1711795431358361900,1.35736181640625,0.4398427851170301,-0.9968724183745682,0.2958640656354837
1711795431368338000,1.367337890625,0.3908054902255535,-1.0666027380090206,0.297471573897358
1711795431378312700,1.377312744140625,0.23286826015412807,-1.1292715217594056,0.29401907708961517
1711795431388289000,1.3872890625,0.04770867663621902,-1.153232827583328,0.2852066424176097
1711795431398264800,1.397264892578125,-0.09873100786507129,-1.190382189347595,0.2535279123504646
1711795431408241000,1.407240966796875,-0.029883097088336943,-1.1965349398236722,0.2363067101702094
1711795431418217000,1.417217041015625,0.134192781868577,-1.1589841576516628,0.2802185700730421
1711795431428192800,1.42719287109375,0.2872410708546638,-1.181591491583362,0.3353935092030093
1711795431438167800,1.437167724609375,0.42003041566610333,-1.2379833139561116,0.35486565038152035
1711795431448144000,1.447143798828125,0.43275370363891125,-1.273510116019845,0.336611250962317
1711795431458120000,1.457119873046875,0.2518868488788605,-1.3043905535824596,0.28468166869543493
1711795431468095700,1.467095703125,-0.021122867527604103,-1.361758016054332,0.25415072042392567
1711795431478071800,1.47707177734375,-0.19895313107073306,-1.413224876180291,0.25837708768099543
1711795431488047900,1.4870478515625,-0.28811025490462777,-1.4207665237315,0.2913753576477989
1711795431498024000,1.49702392578125,-0.2817255223035812,-1.4088384777896106,0.32737047134302555
1711795431507999000,1.5069990234375,-0.20660510712862012,-1.42028560834676,0.4021307845013216
1711795431517974800,1.516974853515625,-0.10365794287323951,-1.4307668164812029,0.4071668789723888
1711795431527950800,1.526950927734375,-0.0177723880559206,-1.4244379057206213,0.39072544725928454
1711795431537927000,1.536927001953125,-0.05238192914426326,-1.354482764354348,0.40788222416751085
1711795431547902700,1.54690283203125,-0.1384884332358837,-1.27681120339185,0.3626031127657741
1711795431557879000,1.556879150390625,-0.2687526434838772,-1.2078601975668222,0.34937395763006057
1711795431567853800,1.566853759765625,-0.37414953897893427,-1.1284713112924247,0.36648130590599026
1711795431577830000,1.576829833984375,-0.4654238010972738,-1.0338163937598466,0.34737175096217543
1711795431587806000,1.586805908203125,-0.5502110392838716,-0.9814479816842824,0.32562497938256707
1711795431597782000,1.596781982421875,-0.5589724378883838,-0.9258953135494142,0.3441466879684478
1711795431607757800,1.6067578125,-0.581712092962861,-0.9282580240927636,0.37826270991880445
1711795431617734000,1.61673388671875,-0.6080430505275726,-1.0585633700687438,0.37065113893654195
1711795431627709000,1.626708984375,-0.6036901160150766,-1.1128723217528314,0.2852137114792131
1711795431637684700,1.636684814453125,-0.48893677863180635,-1.002176954523474,0.22168990006837994
1711795431647661000,1.6466611328125,-0.24131284789443014,-0.8286256834737956,0.2499385460889898
1711795431657636900,1.656636962890625,-0.18063304600417612,-0.7952312172636389,0.29656017640717325
1711795431667612700,1.66661279296875,-0.3547808216422796,-0.7929181180156767,0.3047940257399343
1711795431677589000,1.676589111328125,-0.4989221660733223,-0.6549333965182303,0.315960457925871
1711795431687564800,1.686564697265625,-0.579951513031125,-0.3782150348521769,0.31505163598526265
1711795431697539800,1.696539794921875,-0.6349526847630739,-0.14496464351266622,0.295241367159877
1711795431707516000,1.706515869140625,-0.671461921992898,0.04006239966675639,0.2356270938755944
1711795431717492000,1.716491943359375,-0.7002274132281542,0.1994806620761752,0.2072898197234608
1711795431727467800,1.7264677734375,-0.7807435499668121,0.3094377050936222,0.25874078816054386
1711795431737443800,1.73644384765625,-0.9394541024982929,0.39299657052904363,0.26843133910764005
1711795431747420000,1.746419921875,-1.1355717178821563,0.5226293510057032,0.22008202648032454
1711795431757394700,1.756394775390625,-1.0029115524083376,0.5404854718223214,0.14806436309367418
1711795431767371000,1.76637109375,-0.6667904230505227,0.5156944371759892,0.07894268601001239
1711795431777346800,1.776346923828125,-0.35944881345331664,0.5680794350601732,0.03365016713743098
1711795431787323000,1.786322998046875,-0.13628537023365497,0.6718349930889904,0.05507262953296303
1711795431797299000,1.796298828125,-0.07837854018807411,0.7455433495089411,0.046404626566637304
1711795431807274800,1.806274658203125,-0.11957096679806709,0.7396788413897156,-0.025047877217922357
1711795431817249800,1.816249755859375,-0.2384393382847309,0.7624855703510344,-0.14088075346620751
1711795431827225900,1.826225830078125,-0.3494821307122707,0.7757210456296801,-0.2615672254918143
1711795431837202000,1.836201904296875,-0.32867139787375926,0.7992145878113806,-0.4158681814201176
1711795431847178000,1.846177978515625,-0.21261749928593635,0.8433173489101231,-0.507347902982682
1711795431857153800,1.85615380859375,-0.04022621192634106,0.8659116041645407,-0.5768733476947993
1711795431867129900,1.8661298828125,0.19923720870912073,0.9117397277511656,-0.5950406168198212
1711795431877105000,1.87610498046875,0.2514583943337202,0.9648013097226619,-0.4864384224774316
1711795431887081000,1.8860810546875,0.17095219446718693,0.8185719069711863,-0.33240258375871923
1711795431897056800,1.896056884765625,0.19219664254784583,0.7629355060756206,-0.23497569902846588
1711795431907033000,1.906033203125,0.22777239831984042,0.8057694162823259,-0.18027053283471614
1711795431917009000,1.9160087890625,0.2211731461852789,0.7449089971281587,-0.2013102521235123
1711795431926984700,1.925984619140625,0.13701426903009414,0.654569677772373,-0.21459133837586267
1711795431936961000,1.9359609375,0.03739186528325081,0.6762853966265916,-0.23498945355918258
1711795431946935800,1.945935791015625,0.01059679733812809,0.7860470632024109,-0.2571436003632843
1711795431956911900,1.955911865234375,0.03853168296813965,0.9153976657368242,-0.2789200546951033
1711795431966888000,1.965887939453125,-0.0013175123393535614,0.9971863066293298,-0.3042938576654531
1711795431976863700,1.97586376953125,0.008227145597338677,0.9984361605599522,-0.37308103296458717
1711795431986839300,1.98583935546875,0.15207506003975868,1.0098897208578883,-0.3918640593677759
1711795431996815000,1.995815185546875,0.16069325078129768,0.9847327755086124,-0.3450178447797894
1711795432006790100,2.0057900390625,0.20925474485456944,0.9295784590415656,-0.27037244497174395
1711795432016766200,2.01576611328125,0.26955051586329937,0.9169026634722948,-0.1920459089655429
1711795432026742300,2.0257421875,0.31207857499122615,0.8241144896596669,-0.1728941040488891
1711795432036718000,2.035718017578125,0.3395832525104284,0.6517611962229013,-0.19824834380224346
1711795432046694400,2.0456943359375,0.25259645845294,0.5262308826290071,-0.18836325666373593
1711795432056670200,2.055670166015625,0.06954056921601295,0.46401057329848405,-0.19314241723166778
1711795432066645200,2.065645263671875,-0.03056815674304962,0.3534856672652066,-0.1968635018477216
1711795432076621300,2.075621337890625,-0.079441785505414,0.24617870036512612,-0.14173519660476594
1711795432086597000,2.08559716796875,-0.13903671476840973,0.16814999652802942,-0.09832080136267468
1711795432096573200,2.0955732421875,-0.09069324735999107,0.09313859468549489,-0.08502110174139961
1711795432106549200,2.10554931640625,0.08722878611981869,0.012805267167836427,-0.038173864240106194
1711795432116525000,2.115525146484375,0.2721411168783903,-0.0842430483072996,0.0053351504828780885
1711795432126500000,2.1255,0.39674247905910015,-0.15935440339297055,-0.025842589525878427
1711795432136476200,2.13547607421875,0.47340953915417194,-0.2362994036465883,-0.0726604548022151
1711795432146452200,2.1454521484375,0.5483984369039535,-0.3140609809800982,-0.14647592485845087
1711795432156428000,2.155427978515625,0.6099778179824352,-0.3860644331783056,-0.2175450370823033
1711795432166404400,2.165404296875,0.5508160194396973,-0.3829965700402856,-0.25156605595927684
1711795432176380200,2.175380126953125,0.34809506026804443,-0.3930960853807628,-0.22556995637211946
1711795432186355200,2.185355224609375,0.22558745549619197,-0.4053913571998477,-0.1970841223284602
1711795432196331300,2.195331298828125,0.19389467863738535,-0.4064021416775882,-0.19355932746948673
1711795432206307000,2.20530712890625,0.18301146557331083,-0.35197672400698066,-0.20402321914294733
1711795432216283400,2.215283447265625,0.14661211845874786,-0.2443552843302488,-0.19243403150029478
1711795432226259200,2.22525927734375,0.22342530902624128,-0.132600982632488,-0.15747914757300166
1711795432236235300,2.2352353515625,0.35908933249115943,-0.04449906693994999,-0.11515910517256707
1711795432246210000,2.2452099609375,0.3753226744115352,-0.039177141264826056,-0.13009795030299573
1711795432256186400,2.255186279296875,0.3382628175616264,-0.1114464047923684,-0.18421324257850646
1711795432266162200,2.265162109375,0.40324177795052524,-0.2328200370982289,-0.15364789884705096
1711795432276138200,2.27513818359375,0.4664315168350935,-0.31764673051238057,-0.10579243415128439
1711795432286114300,2.2851142578125,0.41903555940985676,-0.4241619625128805,-0.10234846770986913
1711795432296090000,2.295090087890625,0.3311994550466537,-0.526848430005461,-0.07822066447893157
1711795432306066200,2.305066162109375,0.3057558017104864,-0.5343688886381686,-0.019611019926238805
1711795432316041200,2.315041259765625,0.31200550975501534,-0.5513344903558492,0.03707470735916868
1711795432326017000,2.32501708984375,0.30783319250643254,-0.6074775255993008,0.07891570667154155
1711795432335993300,2.334993408203125,0.21667934189736843,-0.6235786925073713,0.08654255742132663
1711795432345969200,2.34496923828125,0.05715221228599548,-0.6322562122207135,0.08501927511049434
1711795432355945200,2.3549453125,-0.050641222956776616,-0.6759894824199378,0.07310922148302197
1711795432365921300,2.36492138671875,-0.10052899719774723,-0.6887387816168368,0.0771721966056153
1711795432375896300,2.374896240234375,-0.18061492582559585,-0.7469538008287548,0.021401328275958077
1711795432385872100,2.3848720703125,-0.1764209812670946,-0.8151817530762404,-0.07616320222616195
1711795432395848200,2.39484814453125,-0.08485270463824271,-0.8159450655989349,-0.09629788070032373
1711795432405824300,2.40482421875,-0.02769114000201225,-0.8451040861964225,-0.11321300347293727
1711795432415800300,2.41480029296875,0.02485094814002514,-0.9694264122400432,-0.21918288568351416
1711795432425776000,2.424776123046875,0.02149403892755508,-1.026198904493451,-0.2251212627565488
1711795432435751200,2.434751220703125,-0.026557167536020276,-0.9921916401471942,-0.20396052917027846
1711795432445727200,2.444727294921875,-0.09969137732982634,-0.9951097926162182,-0.27444652601024133
1711795432455703300,2.454703369140625,-0.19871347709596157,-1.0486819544583559,-0.32263891277648504
1711795432465679000,2.46467919921875,-0.34864158823490143,-1.0522803442765027,-0.31617326042633503
1711795432475655400,2.474655517578125,-0.4884153851062059,-1.014493780587241,-0.317378288834542
1711795432485631200,2.48463134765625,-0.42918344393670554,-1.0027163220971822,-0.358775882627815
1711795432495606300,2.494606201171875,-0.38499417359828947,-0.9826965204406529,-0.3691194723898545
1711795432505582300,2.504582275390625,-0.4264665861934423,-0.977331632406637,-0.32177677952181544
1711795432515558100,2.51455810546875,-0.5000327576637268,-0.9606031273804605,-0.29434626321736723
1711795432525534200,2.5245341796875,-0.6261784266769885,-0.8977461275815963,-0.2685673135122284
1711795432535510300,2.53451025390625,-0.8002659965604543,-0.8701337519042194,-0.2444415013089776
1711795432545486300,2.544486328125,-0.9656488664627074,-0.9260138984277844,-0.21961879288274794
1711795432555461000,2.554461181640625,-0.9566203413546085,-0.9051032123461366,-0.19944230282716452
1711795432565437400,2.5644375,-0.8992588702321052,-0.754717712828517,-0.15381792165171354
1711795432575413200,2.574413330078125,-0.8484533966243266,-0.571086215660721,-0.11632323531480505
1711795432585389000,2.58438916015625,-0.929617768138647,-0.49454818877279755,-0.11427804802171886
1711795432595365400,2.594365478515625,-1.110422663578391,-0.5203128907568753,-0.07377237983318045
1711795432605341200,2.604341064453125,-1.170250232553482,-0.4678219482801854,-0.01723663721140474
1711795432615316200,2.614316162109375,-1.0479764365375042,-0.1562074836693704,0.11021910975342616
1711795432625292300,2.624292236328125,-0.8475123163819313,0.15209054986983536,0.21123351584793998
1711795432635268000,2.63426806640625,-0.6204588799864054,0.3394055578559637,0.2616435055984184
1711795432645244200,2.644244140625,-0.393872476580739,0.489359826349467,0.24765185992391778
1711795432655220200,2.65422021484375,-0.23226444904208182,0.6216228091992437,0.19041027058772741
1711795432665196300,2.6641962890625,-0.16670213580727578,0.7005052072562277,0.061535395806282756
1711795432675171000,2.674171142578125,-0.19393851777911186,0.7915196493946015,-0.07218797845225781
1711795432685147400,2.6841474609375,-0.40916766086816786,0.8895299417696892,-0.06940459481142461
1711795432695123200,2.694123291015625,-0.6670359222441912,0.9409409800551831,0.08304379205275327
1711795432705099000,2.70409912109375,-0.7694967642873525,0.9831029823496937,0.18339542338959872
1711795432715075300,2.714075439453125,-0.7368523857921362,0.9378288393840193,0.2015022492979653
1711795432725051100,2.724051025390625,-0.634417262712121,0.8898752480760216,0.11649024417847394
1711795432735026200,2.734026123046875,-0.4030974010437727,0.9358665994003414,-0.04381196145862341
1711795432745002200,2.744002197265625,-0.3034329117208719,0.8562332368455827,-0.2203308136096224
1711795432754978300,2.753978271484375,-0.340469972217083,0.8001660433173179,-0.32421613549795
1711795432764954400,2.763954345703125,-0.3753039697110653,0.8999282939262687,-0.40594033285211767
1711795432774930200,2.77393017578125,-0.3857423616170883,1.037394544507563,-0.41149018553160127
1711795432784906200,2.78390625,-0.4302800070017576,1.1327806258589028,-0.36543618076723067
1711795432794881000,2.793881103515625,-0.4151566721498966,1.199194879747927,-0.3409571712121367
1711795432804857300,2.803857421875,-0.30317104591429234,1.2683020259827376,-0.2688879055024124
1711795432814833200,2.813833251953125,-0.1340536656588316,1.2753357240118086,-0.2166796524246223
1711795432824809200,2.823809326171875,0.09201309778690338,1.2383056777782737,-0.1793859320199117
1711795432834785300,2.833785400390625,0.27631284960508345,1.1871643963448704,-0.14502276690807192
1711795432844761000,2.843760986328125,0.4079062626302242,1.1416815790645778,-0.06534843302210792
1711795432854736400,2.853736328125,0.5042050749123096,1.1162779654778539,0.06830874413242563
1711795432864712200,2.863712158203125,0.5960778874456882,0.9951564082369208,0.17004677006006239
1711795432874688300,2.873688232421875,0.6840384949713945,0.8077244958728551,0.20393807987645268
1711795432884664300,2.883664306640625,0.8594687116354703,0.6400922396086156,0.23310597790013998
1711795432894640000,2.89364013671875,0.9698492407619953,0.5063621068157256,0.28389660099865865
1711795432904616200,2.9036162109375,1.0104314265191554,0.37090617314353586,0.24139236113773657
1711795432914591200,2.91359130859375,0.9239531665056944,0.20034853095188734,0.16357567434981465
1711795432924567300,2.9235673828125,0.7319038234740495,0.13028320720940828,0.13959533503185956
1711795432934543000,2.933543212890625,0.51877019135952,0.16532003379911184,0.17054832637403158
1711795432944519200,2.943519287109375,0.2355067919641733,0.20132117537632582,0.21542870251545682
1711795432954495200,2.9534951171875,-0.00009293898046016692,0.1732467351451516,0.23335717618223278
1711795432964471000,2.963470947265625,-0.051476504737138745,0.19656389784663914,0.21424647046094758
1711795432974446300,2.9734462890625,-0.030559388914704323,0.2583822022475302,0.18517194980913773
1711795432984422000,2.983421875,-0.0011368950754404067,0.25093349367678164,0.10083879379928111
1711795432994398000,2.99339794921875,0.001378302615880966,0.20126506127491592,-0.02441093102125451
1711795433004373800,3.003373779296875,0.00046411038041114806,0.18239990954622626,-0.09118769807973875
1711795433014349800,3.013349853515625,-0.04044774572253227,0.22889511873945592,-0.030840690074115988
1711795433024326000,3.023325927734375,-0.10315233143866062,0.2500792149350047,0.05739447834296152
1711795433034301000,3.033301025390625,-0.11044833366572857,0.26470994396433234,0.16176966610746457
1711795433044277000,3.043277099609375,-0.09521043252348899,0.21753025963827965,0.22954068663399665
1711795433054252800,3.053252685546875,0.03464344335794449,0.13333645730018615,0.21608241718383506
1711795433064228900,3.063228759765625,0.2318207969278097,0.0056638709805905815,0.13115167887331916
1711795433074205000,3.073204833984375,0.4640256247371435,-0.10703779456987976,0.03520871255788952
1711795433084180700,3.0831806640625,0.5664204158067703,-0.1714563445970416,-0.020843886189442128
1711795433094155800,3.09315576171875,0.5758814871132374,-0.18689999744445085,-0.07222416401049121
1711795433104131800,3.1031318359375,0.6373299352884292,-0.22050036149024962,-0.06338827539766206
1711795433114108000,3.11310791015625,0.6479658955931663,-0.23853373856991528,0.01436663473304361
1711795433124084000,3.123083984375,0.6057447104573249,-0.22605668044313787,0.07916260323785244
1711795433134060000,3.13306005859375,0.5244400536894798,-0.2250935344994068,0.12472489722883329
1711795433144035800,3.143035888671875,0.45009354549646374,-0.21608955931067467,0.1410813723385334
1711795433154011000,3.153010986328125,0.27568390405178067,-0.23923545709848404,0.13684705923702567
1711795433163987000,3.162987060546875,0.06486205601096152,-0.3351728887222707,0.13184696766110135
1711795433173962800,3.172962646484375,-0.04714870466589927,-0.40063364127874374,0.11335710638505406
1711795433183939000,3.18293896484375,-0.09063187256157397,-0.4287945907495916,0.10054993952107615
1711795433193915000,3.192914794921875,-0.02371054593324661,-0.4450137580141425,0.11204078135578892
1711795433203890000,3.202889892578125,0.10391045632958412,-0.47302156274989243,0.1259891632772982
1711795433213866000,3.212865966796875,0.16967033796310424,-0.5001664670459925,0.15034438205594197
1711795433223841800,3.222841796875,0.1581166782915592,-0.5210375517696142,0.19140920023089272
1711795433233817900,3.23281787109375,0.11679741043150424,-0.5279677894242107,0.20535287857782095
1711795433243794000,3.2427939453125,0.026829554736614226,-0.5774117654204368,0.1636004799975082
1711795433253770000,3.25277001953125,-0.014109189373254775,-0.7180547463417053,0.09282535488470457
1711795433263744800,3.262744873046875,-0.042217093482613564,-0.7985466254219412,0.038574850823008454
1711795433273721000,3.27272119140625,-0.03799100022017955,-0.8405532910242677,0.008887172417138935
1711795433283697000,3.28269677734375,-0.02733867330253124,-0.8492747960098087,0.016795506989426213
1711795433293672700,3.292672607421875,-0.06424947707057,-0.8174754900366067,0.06237788821214344
1711795433303649000,3.30264892578125,-0.11854279279410838,-0.8003646346293389,0.10989055365249514
1711795433313624800,3.312624755859375,-0.18035306001901624,-0.8572866914212703,0.14698700705259107
1711795433323600000,3.322599853515625,-0.26713994759023185,-0.9337893547348678,0.146287087755464
1711795433333576000,3.332575927734375,-0.3507522967785597,-0.970147200795263,0.090469338943623
1711795433343552000,3.342552001953125,-0.3702180447489023,-1.0109498974353075,0.10333733261674642
1711795433353527800,3.35252783203125,-0.3122317197263241,-1.0357387401245535,0.13290580166480503
1711795433363503900,3.36250390625,-0.3043997109264135,-1.0300810066238044,0.17684413858260958
1711795433373480000,3.37247998046875,-0.2971948941141367,-1.0471088599227367,0.1932888947639614
1711795433383454700,3.382454833984375,-0.2414151392251253,-1.0480334274217487,0.255087617681548
1711795433393431000,3.39243115234375,-0.28694822538793086,-0.9866370016947388,0.3060634611538611
1711795433403406800,3.40240673828125,-0.4086474363863468,-0.9512648056708276,0.283445130904112
1711795433413382700,3.412382568359375,-0.46110359981060023,-0.9711429338343441,0.23387656041383742
1711795433423359000,3.42235888671875,-0.45845571565032,-0.9748113932140171,0.23937793430909513
1711795433433334800,3.432334716796875,-0.490716647785902,-0.9487979771658778,0.2674510958986357
1711795433443309800,3.442309814453125,-0.6135878251731396,-0.9259281198404729,0.27906872418448325
1711795433453286000,3.452285888671875,-0.742934336054325,-0.9484862808682024,0.3109318526415154
1711795433463262000,3.462261962890625,-0.8438818509250878,-1.0822305883169174,0.30629653925737366
1711795433473238000,3.472238037109375,-0.8311813593059778,-1.1846705337025225,0.26452388334032145
1711795433483213800,3.4822138671875,-0.7539823842912912,-1.0412202402755617,0.31785558749008924
1711795433493190000,3.49218994140625,-0.7105079842239618,-0.7519011941030621,0.4345736490750685
1711795433503164700,3.50216455078125,-0.7626976056665181,-0.549698267456144,0.532127429854311
1711795433513141000,3.51214111328125,-0.8801695543587207,-0.4801237959705293,0.5791856432251632
1711795433523116800,3.52211669921875,-0.9652888009786605,-0.3690327804870903,0.5660009482856839
1711795433533092900,3.5320927734375,-1.0295879624098538,-0.11392682343125343,0.5661085003133863
1711795433543069000,3.54206884765625,-1.060962759360671,0.21848668358027934,0.6322791547048836
1711795433553044700,3.552044677734375,-1.0657517472028732,0.4559546926148236,0.7549678881973028
1711795433563020000,3.56202001953125,-0.8788689931541681,0.6538575839802623,0.8802814172353595
1711795433572995800,3.571995849609375,-0.7484434548646212,0.8883300644606351,0.9669820147626101
1711795433582972000,3.581971923828125,-0.6187205118864775,1.0814105041056872,0.9747709150731563
1711795433592948000,3.591947998046875,-0.42873570016920565,1.0944476803332566,0.6565517184350639
1711795433602923800,3.601923828125,-0.24648352853059768,0.8362289980843662,0.04608145902687683
1711795433612899800,3.61189990234375,-0.11264087527394294,0.574297871183604,-0.4484756985036656
1711795433622875000,3.621875,-0.03624970951080322,0.5961293253719806,-0.6405240551546215
1711795433632851000,3.631850830078125,-0.10258300711810588,0.9108958242729306,-0.6081537078278139
1711795433642826800,3.64182666015625,-0.3589285889714956,1.0700625961393118,-0.522178757693991
1711795433652803000,3.651802978515625,-0.5899585277825593,0.9638168287299573,-0.5653143542610108
1711795433662779000,3.66177880859375,-0.7370160519212484,0.8539239369899034,-0.5498232090100645
1711795433672754000,3.67175390625,-0.6421113243460654,0.8470081662520765,-0.5465141209946945
1711795433682730000,3.68172998046875,-0.30527883184850213,0.840416512902081,-0.5966976633118465
1711795433692705800,3.691705810546875,0.08877952269315718,0.7986461402736603,-0.5185494247483089
1711795433702681900,3.701681884765625,0.4232078766584396,0.8058807677023112,-0.41325883917193856
1711795433712658000,3.711657958984375,0.5158019892036915,0.7934814509868622,-0.3231003197431564
1711795433722633700,3.7216337890625,0.37319209212362764,0.8045359289646148,-0.30193383226953446
1711795433732608800,3.73160888671875,0.19776479806900024,0.8248523024149239,-0.28856954297944903
1711795433742584800,3.741584716796875,0.0557265633970499,0.8149903952226042,-0.3491054794196039
1711795433752561000,3.751560791015625,-0.029084640187025067,0.7227756373837589,-0.44671756625734266
1711795433762536700,3.76153662109375,-0.009451134434342383,0.6328608270503581,-0.5464806936491281
1711795433772513000,3.771512939453125,0.07568097166717053,0.6897087956927717,-0.5222349813932553
1711795433782488800,3.78148876953125,0.1741682339042425,0.825894504944235,-0.4466908609135076
1711795433792464000,3.7914638671875,0.24160861597061156,0.9456548568345606,-0.3873457782257348
1711795433802440000,3.80143994140625,0.29253040943443775,1.025196303322166,-0.2648938308975659
1711795433812415700,3.811415771484375,0.2666238147616386,1.0260198946647345,-0.20641378580760208
1711795433822392000,3.82139208984375,0.15567571488022802,0.9188179955743253,-0.20911330882357432
1711795433832367900,3.831367919921875,0.07126198618113994,0.754076930706948,-0.20497907682936636
1711795433842343000,3.841343017578125,0.0794330176770687,0.5745540379017591,-0.1980231567442417
1711795433852318700,3.851318603515625,0.28704817863106724,0.4110083202987909,-0.20538572140149772
1711795433862295000,3.861294921875,0.5936620584756136,0.23602613966315983,-0.1797505275486037
1711795433872270800,3.871270751953125,0.8534078041613101,0.17122165905833242,-0.1723516129363328
1711795433882247000,3.881246826171875,0.8495026134163141,0.2026461403697729,-0.15703681063298136
1711795433892223000,3.891222900390625,0.6649117696970701,0.2292060843847692,-0.15970197472162545
1711795433902197800,3.90119775390625,0.36607203098535535,0.21276918271631,-0.21156660199351607
1711795433912174000,3.911174072265625,0.11888766070902347,0.1715866929784417,-0.27153606365732846
1711795433922150000,3.92114990234375,-0.006252630653977393,0.16312077018916607,-0.26842458057329055
1711795433932125700,3.931125732421875,-0.04027531176507473,0.15387202645912765,-0.22865568396039307
1711795433942102000,3.94110205078125,0.06269114171266556,0.11737988649457692,-0.21998963548913597
1711795433952077800,3.951077880859375,0.24183950211703775,0.09200447608903049,-0.2522719026736915
1711795433962052900,3.961052978515625,0.4117600154489279,0.0661431818626821,-0.31309768890589473
1711795433972029000,3.97102880859375,0.56241118016541,0.08066270560249686,-0.32161526881717145
1711795433982005500,3.981005615234375,0.500765163591504,0.21874416547268627,-0.25555607544351366
1711795433991981600,3.990981689453125,0.2783943320542574,0.26888211508244275,-0.1906335944822058
1711795434001957400,4.000957275390625,0.10479308438301085,0.18673793875053524,-0.21610040949825196
1711795434011933400,4.010933349609375,-0.04725158051848411,0.13926438604444263,-0.23089516998287288
1711795434021908500,4.020908447265625,-0.09656886139512061,0.14401991000846026,-0.27092279059719293
1711795434031884500,4.030884521484375,-0.08950316079258919,0.1354281688824296,-0.30078707338720556
1711795434041860600,4.040860595703125,-0.08196984267830848,0.1164089956358075,-0.27641883073020723
1711795434051836400,4.05083642578125,0.026057401320338246,0.11902370817884803,-0.25576518814954907
1711795434061812500,4.0608125,0.1706879905730486,0.1370361886009574,-0.19385292185489086
1711795434071787500,4.07078759765625,0.26740590505003925,0.12248597746193408,-0.1451008371129632
1711795434081763600,4.080763671875,0.26639468218088147,0.09899155849739909,-0.13700378416869788
1711795434091739400,4.090739501953125,0.21321897231042383,0.05803907812312245,-0.13798673079144208
1711795434101715500,4.100715576171875,0.14099310953319072,-0.0243308697886765,-0.1979624395329505
1711795434111691500,4.11069140625,0.10620821187794208,-0.1388591662444174,-0.23426625385116784
1711795434121667600,4.12066748046875,0.13420797943770885,-0.20564400701150298,-0.2638671729972586
1711795434131642600,4.130642578125,0.1225771628767252,-0.25469386912360786,-0.31750947746615854
1711795434141618400,4.140618408203125,0.07431728209853172,-0.37362931449711323,-0.3960331982785836
1711795434151594500,4.150594482421875,0.08216858012080192,-0.4592404362872243,-0.40304990864023565
1711795434161570600,4.160570556640625,0.08199673068523407,-0.44534635096937414,-0.39302645421065385
1711795434171546400,4.17054638671875,0.10035714776217937,-0.4334871324799955,-0.39597971452567726
1711795434181522700,4.180522705078125,0.16350538559257982,-0.41378509153574705,-0.32956250149458644
1711795434191497500,4.19049755859375,0.2157037748634815,-0.3146244600817561,-0.3129025316599756
1711795434201473500,4.2004736328125,0.1438344704389572,-0.3012532295942306,-0.3403144528618082
1711795434211449600,4.21044970703125,0.013212532794475554,-0.3534710542179644,-0.34938838801421224
1711795434221425400,4.22042529296875,-0.056606853362917896,-0.3611374971926212,-0.3618237989563495
1711795434231401500,4.2304013671875,-0.12119418408572673,-0.3457067038267851,-0.3972830156765878
1711795434241377500,4.24037744140625,-0.3683674484461546,-0.4011760775923729,-0.4294207598239183
1711795434251352600,4.2503525390625,-0.6590478460997342,-0.6280014043204486,-0.49698367229141294
1711795434261328400,4.260328369140625,-0.7321843939810991,-0.7016982164330781,-0.5371334579806775
1711795434271304700,4.2703046875,-0.5291647441238164,-0.4752111817486584,-0.4827815804703161
1711795434281280500,4.280280517578125,-0.3403852165430784,-0.22982363176122306,-0.36590105833262204
1711795434291256300,4.29025634765625,-0.31583821978569027,-0.22197569473981857,-0.3889111643789336
1711795434301231600,4.300231689453125,-0.5835428155213594,-0.30505072218105195,-0.41843576688580214
1711795434311207400,4.31020751953125,-0.986170260965824,-0.4059052980713546,-0.45518023764360693
1711795434321183500,4.32018359375,-1.3072569027990102,-0.31200141810178755,-0.448919789009355
1711795434331159600,4.33015966796875,-1.5813859786242246,-0.11679112682119011,-0.340869931320101
1711795434341135600,4.340135498046875,-1.7064976284146307,0.016439385886490344,-0.23594786852886898
1711795434351111400,4.350111328125,-1.6477268750160932,0.03135579998940229,-0.1686366475338116
1711795434361086700,4.360086669921875,-1.3711176728129386,0.03902633461728692,-0.10414517840091138
1711795434371062500,4.3700625,-1.0273545042693615,0.1294403266444802,-0.008857588987983762
1711795434381038300,4.380038330078125,-0.6778326260685921,0.19479118908569215,0.06311497488161548
1711795434391014700,4.3900146484375,-0.40434535527825355,0.10444222511872649,0.09290706008509732
1711795434400990500,4.399990478515625,-0.08888064498007298,0.026004209828376767,0.15273857458294368
1711795434410965500,4.409965576171875,0.1184247193723917,0.034710955636203286,0.2057220589500852
1711795434420941600,4.419941650390625,0.07326981887221336,0.03270969881638884,0.2530991655443795
1711795434430917400,4.42991748046875,-0.02740063262283802,-0.04425035287588835,0.2834003236480057
1711795434440893400,4.4398935546875,-0.1219236674040556,-0.0837426975697279,0.3522492938706651
1711795434450869500,4.449869384765625,-0.17614274884760378,-0.019827274759113788,0.4276696418402716
1711795434460845600,4.459845458984375,-0.1319879653006792,-0.02767141238823533,0.4332300889790058
1711795434470820400,4.4698203125,0.02898819407522678,-0.12337503525614738,0.29469281163271516
1711795434480796700,4.479796630859375,0.3263607828438282,-0.18810688901618122,0.12702477166904136
1711795434490772500,4.4897724609375,0.5351034865230322,-0.13946984548866748,0.023189965258399024
1711795434500748300,4.499748291015625,0.7016285121977329,0.002594400407373905,-0.029255142482300288
1711795434510724600,4.509724609375,0.70131696203053,0.2208075277432799,-0.026065516128134913
1711795434520700400,4.519700439453125,0.5363596240639686,0.45169294351711864,0.008041281336150131
1711795434530675500,4.529675537109375,0.23679975438416004,0.6123487848974764,0.09267410071259365
1711795434540651500,4.539651611328125,-0.07898819651901721,0.7390807293660938,0.1881666746457107
1711795434550627600,4.549627685546875,-0.2836556135833263,0.8778972255125641,0.2157609849434346
1711795434560603600,4.559603759765625,-0.3873445361167192,1.0500972280837595,0.27234078590264543
1711795434570579500,4.569579345703125,-0.38580373641550536,1.1398705841198562,0.2863693660540506
1711795434580555500,4.579555419921875,-0.26719372360408306,1.068978308033943,0.3211849511085078
1711795434590530300,4.5895302734375,-0.16419745950996875,0.9712127842001617,0.3082981796696782
1711795434600506600,4.599506591796875,-0.13652560873031616,0.88130396521613,0.2621084379627369
1711795434610482400,4.609482421875,-0.10771160217821597,0.7812174510888755,0.28527019090680406
1711795434620458500,4.61945849609375,0.03721124801933765,0.7388900290995836,0.35789456974864003
1711795434630434600,4.6294345703125,0.21602058572769164,0.7339677702665328,0.4557652344573289
1711795434640409300,4.639409423828125,0.27793840498030187,0.6437696129471063,0.5435051119044423
1711795434650385700,4.6493857421875,0.30613807902634144,0.4406638922415673,0.5649724089555442
1711795434660361500,4.659361572265625,0.346311099460721,0.19196195700913665,0.49875155874677
1711795434670337500,4.669337646484375,0.33124212514460083,-0.034984365750104184,0.4144363950513303
1711795434680313600,4.679313720703125,0.31918168499469757,-0.1727754643715918,0.30896574020031836
1711795434690289400,4.689289306640625,0.32047932358980175,-0.1326395610772073,0.30001630821041764
1711795434700264400,4.699264404296875,0.2803483887314796,0.00681157971099019,0.34069621872100975
1711795434710240500,4.709240478515625,0.18540800532102583,0.07997004716321826,0.299897211875394
1711795434720216600,4.719216552734375,0.06411562155783176,0.11111936479508876,0.22356069890893995
1711795434730192400,4.7291923828125,-0.12439444143176077,0.113447369351238,0.15008704629400743
1711795434740168400,4.73916845703125,-0.33013620972931385,0.03563537700474262,0.07495019144089891
1711795434750143500,4.7491435546875,-0.45812078460752964,-0.06762377580925821,0.03036556510934606
1711795434760119600,4.75911962890625,-0.49653497867584223,-0.1358392339013517,0.09481208998882211
1711795434770095600,4.769095703125,-0.4905079734712839,-0.18722060770094393,0.20836532173417507
1711795434780071400,4.779071533203125,-0.4707511335998773,-0.23730200481787322,0.2815825884352438
1711795434790047500,4.789047607421875,-0.4213783231437206,-0.19356573894396423,0.41166156004313376
1711795434800023600,4.7990234375,-0.37721301820278164,-0.22365794873833655,0.4608596349868923
1711795434809998600,4.80899853515625,-0.29328678075969217,-0.36191330387070775,0.42693807616271073
1711795434819974400,4.818974365234375,-0.24384382767677307,-0.4527295930884778,0.4054009287457913
1711795434829950500,4.828950439453125,-0.17775719830691813,-0.4811256664894521,0.35982480715885756
1711795434839926500,4.838926513671875,0.019267010527849196,-0.47372591162696476,0.2756846712367609
1711795434849902300,4.84890234375,0.28919805014133454,-0.36117008428797126,0.21754543894110245
1711795434859877600,4.858877685546875,0.5286006805002689,-0.25051307630762454,0.23476306092478333
1711795434869853400,4.868853515625,0.6651169368803501,-0.1703140426941216,0.26795895408922804
1711795434879829500,4.87882958984375,0.6025210722357034,-0.06446721147447824,0.28956193328397345
1711795434889805600,4.8888056640625,0.5198743532091379,0.01767301933467388,0.3429228452619165
1711795434899781400,4.898781494140625,0.3827303203195333,0.07376549343466758,0.4039831343697384
1711795434909757700,4.9087578125,0.2396235796332359,0.007715835074335336,0.40247539668790994
1711795434919732500,4.918732421875,0.17024901463389397,-0.17150398313105106,0.33434915124922987
1711795434929708500,4.92870849609375,0.20967560061514376,-0.24052681208327412,0.30570164210414513
1711795434939684400,4.938684326171875,0.2468482701897621,-0.2478581778846681,0.2688923807481304
1711795434949660400,4.948660400390625,0.2485299396663904,-0.29770825046375393,0.24209614375922828
1711795434959636500,4.958636474609375,0.10116320344805717,-0.1827437545478344,0.29036015272326765
1711795434969611500,4.968611572265625,-0.12800444862246513,-0.06998290615603327,0.3112388362314552
1711795434979587600,4.978587646484375,-0.3329717254161835,-0.08227101758196949,0.29302798369303346
1711795434989564200,4.988564208984375,-0.4682821131378412,-0.15882599560469388,0.28044910915959625
1711795434999540000,4.9985400390625,-0.42107612532675265,-0.2680357273861766,0.2311064746459946
1711795435009516000,5.00851611328125,-0.20003566561043262,-0.33854178063347934,0.15331627400619907
1711795435019492000,5.0184921875,0.09927227513492107,-0.37876901547312736,0.13108427619291468
1711795435029467100,5.028467041015625,0.3006622779637575,-0.44482028126865625,0.1896749785831198
1711795435039443000,5.03844287109375,0.36115327928364277,-0.4737264961488545,0.24617530283164232
1711795435049419300,5.048419189453125,0.24228724588453768,-0.4452119109347462,0.25860179981496184
1711795435059395000,5.05839501953125,0.05760580127239227,-0.35907647300958634,0.31549247508794065
1711795435069371000,5.068370849609375,-0.14729600906968116,-0.2732369492910802,0.334911680502817
1711795435079347200,5.07834716796875,-0.3281950125336647,-0.32642814899161454,0.3225250771384686
1711795435089322000,5.088322021484375,-0.39445407586097714,-0.37454701386392114,0.3491648814566433
1711795435099298000,5.098298095703125,-0.3968400942146778,-0.41126784801781174,0.39075193340741093
1711795435109274000,5.108274169921875,-0.42538814330697056,-0.45801820101588964,0.3811018788674846
1711795435119250200,5.118250244140625,-0.4428454740643501,-0.4648587145604193,0.4206805866705253
1711795435129226200,5.128226318359375,-0.5628484025388956,-0.41730055231079455,0.4846564344314858
1711795435139201300,5.138201171875,-0.6542997747898102,-0.4415164174176752,0.5198318657742813
1711795435149177000,5.148177001953125,-0.607419365671277,-0.5103552681051194,0.5143046998506412
1711795435159153000,5.15815283203125,-0.506878678035736,-0.5843010865427554,0.4861301602458581
1711795435169129200,5.168129150390625,-0.38932606532275676,-0.7880939127296209,0.48087497966401277
1711795435179105000,5.17810498046875,-0.22770810091197488,-0.9654818393327296,0.3919204657301307
1711795435189081000,5.1880810546875,-0.03607727555334568,-0.8929806667454541,0.3093809699377045
1711795435199056100,5.19805615234375,0.0035223289072513577,-0.6270388428986072,0.33731132552307097
1711795435209032000,5.208031982421875,-0.2343389172285795,-0.5801651557818055,0.43853933783564714
1711795435219008300,5.21800830078125,-0.6487520775347948,-0.8192898459821939,0.46732251085806636
1711795435228984000,5.227984130859375,-0.9928723889529705,-0.8512699153497815,0.3356932958671823
1711795435238960000,5.237960205078125,-1.2018535775631665,-0.586546088990569,0.23774865260682998
1711795435248935000,5.247934814453125,-1.1760194636046886,-0.31388693958744407,0.21070050494978204
1711795435258911200,5.2579111328125,-0.9989426487773656,-0.13651274924874304,0.19696239564493298
1711795435268887000,5.267886962890625,-0.7690215479910373,0.006381809991598129,0.16325197708709163
1711795435278863000,5.277863037109375,-0.6268184781461954,0.1514947759337723,0.1648100749829784
1711795435288839200,5.287839111328125,-0.6107879653215408,0.2941013120129704,0.23271716124564407
1711795435298815000,5.29781494140625,-0.6603653584390878,0.3624922728024423,0.25008725211098787
1711795435308790300,5.307790283203125,-0.6751718824267386,0.21917408132255076,0.10522961263675241
1711795435318766000,5.31776611328125,-0.6031593701392411,0.033023879332095385,-0.05316192794027738
1711795435328742100,5.3277421875,-0.3415197735309601,0.004149959286302328,-0.16837573157530278
1711795435338718200,5.33771826171875,-0.008818097227811813,0.15924816653952,-0.27053890584614126
1711795435348694000,5.347694091796875,0.19159867665469646,0.34392990341261026,-0.29591691006757315
1711795435358669000,5.3576689453125,0.25509002883434295,0.47194414277672764,-0.30975966705698516
1711795435368645000,5.36764501953125,0.13726970509588718,0.5842775595366955,-0.3128172645293176
1711795435378621200,5.37762109375,-0.18452070109248161,0.6335596229694783,-0.2962712033979594
1711795435388597000,5.387596923828125,-0.40559330951273437,0.6852867414668202,-0.29143026617281137
1711795435398573000,5.397572998046875,-0.44094928505420683,0.8054993671692907,-0.23128924733437597
1711795435408549000,5.407549072265625,-0.23720541257560251,0.928237711957097,-0.06404543326529674
1711795435418524000,5.41752392578125,0.08068447904288768,0.9850791047282517,0.10527401803405954
1711795435428500200,5.427500244140625,0.43715690703392024,0.9479108190678059,0.14707028315556234
1711795435438476000,5.43747607421875,0.7133680498301982,0.8926336068734526,0.10655271446667611
1711795435448452000,5.4474521484375,0.8596060742795467,0.8546500593073666,0.04606159898235928
1711795435458428200,5.45742822265625,0.774548202458024,0.8467334409639239,-0.03429000397750642
1711795435468403200,5.4674033203125,0.5735837315648794,0.8428169981725513,-0.12943407956678418
1711795435478379000,5.47737890625,0.3449871573805809,0.8458458444744348,-0.24477285215519368
1711795435488355000,5.48735498046875,0.13996435100734234,0.8153181658722459,-0.3020659159502946
1711795435498331100,5.4973310546875,0.002873509609699249,0.7824924394607543,-0.33305527551379055
1711795435508307000,5.507306884765625,0.10403846662342547,0.8416932548396289,-0.40080812106281516
1711795435518282200,5.5172822265625,0.3422843281626701,0.9949087170861661,-0.46944973214510827
1711795435528258000,5.527258056640625,0.5327385109573602,1.1212230206646026,-0.48713780291844155
1711795435538234000,5.537234130859375,0.5866612398028374,1.1864750989064574,-0.4564931103404611
1711795435548210200,5.547210205078125,0.4601221875578165,1.175477173421532,-0.4144122104581445
1711795435558186000,5.55718603515625,0.17144202381074428,1.155619795785099,-0.3544991551566869
1711795435568162300,5.567162353515625,-0.14999299306869507,1.1219130487553775,-0.26461329692313446
1711795435578137000,5.57713720703125,-0.40748599139153957,1.0472041369907557,-0.1780620264723897
1711795435588113200,5.587113037109375,-0.5861351701021195,0.9391226785868406,-0.15429821598194537
1711795435598089000,5.5970888671875,-0.6770049430727958,0.800401021116972,-0.16681995350066572
1711795435608065000,5.60706494140625,-0.6466589046478272,0.6828628753207624,-0.17331066722683608
1711795435618041000,5.617041015625,-0.465761070227623,0.5423869215294719,-0.21816139714866875
1711795435628015900,5.627015869140625,-0.1577858389019966,0.3956378788180649,-0.2208505997000262
1711795435637992200,5.6369921875,0.13632920937538145,0.3204571117579937,-0.17238916846774519
1711795435647968000,5.646968017578125,0.3093377518504858,0.2597236799843609,-0.0939166481195949
1711795435657944300,5.6569443359375,0.3582330079227686,0.1931011901721358,-0.0029547307529021053
1711795435667920100,5.666920166015625,0.4512111513495445,0.1279435122154653,0.012519746491033584
1711795435677896000,5.67689599609375,0.5516933867961168,0.05444193041399121,-0.026774089089175685
1711795435687871000,5.68687109375,0.6168734227150678,-0.012094926941394805,-0.11768745460640638
1711795435697847000,5.696846923828125,0.6117541800051928,-0.09897738384157419,-0.20353170929895711
1711795435707823000,5.706822998046875,0.5797422541946172,-0.13297171564102173,-0.25637701817126946
1711795435717799200,5.716799072265625,0.49077685354053974,-0.13879516109749673,-0.2644825101503171
1711795435727775000,5.72677490234375,0.3279641263872385,-0.10817848903760313,-0.23153332175593822
1711795435737750000,5.73675,0.12259352948963641,-0.0883481455385685,-0.23798589542880652
1711795435747726000,5.74672607421875,-0.08968027092516422,-0.09083908557146787,-0.2799686321662739
1711795435757702100,5.7567021484375,-0.15539105271995066,-0.048413756165653465,-0.2542987688587978
1711795435767678000,5.766677978515625,-0.12721359050571918,0.05425809827968478,-0.22088587194280698
1711795435777654300,5.776654296875,-0.16473697321414946,0.13294205115512012,-0.19741072393432257
1711795435787629000,5.786629150390625,-0.19986089356541634,0.12507453265041113,-0.19941168849319219
1711795435797605000,5.796605224609375,-0.24837036519050595,0.08591638834699988,-0.24239183877017348
1711795435807581200,5.806581298828125,-0.28455694633722306,0.061468029658496376,-0.25110605549840254
1711795435817557000,5.816556884765625,-0.31805764940083026,0.020846973195672035,-0.2333673322500661
1711795435827533000,5.826532958984375,-0.2822024921655655,-0.05913023436069488,-0.22359438198283313
1711795435837509000,5.836509033203125,-0.23495500330030916,-0.1748823735229671,-0.19979148159101603
1711795435847484200,5.846484130859375,-0.1803548135846853,-0.308396525477618,-0.12472745451210066
1711795435857460000,5.8564599609375,-0.06509352667927741,-0.38699981433227654,-0.07434611546737141
1711795435867436300,5.866436279296875,0.02235387062728405,-0.45210883084163067,-0.07626608721190131
1711795435877412000,5.876412109375,0.08150748586356639,-0.5259156791999936,-0.0549004421706777
1711795435887388000,5.886387939453125,0.1243500177681446,-0.5625004658840597,-0.09756767230727709
1711795435897363200,5.89636328125,0.18207856863737104,-0.6162991299584507,-0.12569931348524988
1711795435907339000,5.906339111328125,0.2072334681600332,-0.6437566073350608,-0.09492601695838383
1711795435917315000,5.916315185546875,0.1873527096480131,-0.6862720992423593,-0.04837871225173585
1711795435927291100,5.926291015625,0.14744623119533062,-0.7277138244383037,-0.04219278102526441
1711795435937267000,5.936266845703125,0.11716741278767585,-0.7687932921931148,-0.07700641158465296
1711795435947243000,5.946242919921875,0.17956804712116717,-0.8052725726760923,-0.10593725858260877
1711795435957218000,5.956218017578125,0.1871042878448963,-0.8555689277179539,-0.15797321470025927
1711795435967194000,5.966194091796875,0.11738134779930114,-0.9182159380279481,-0.2137060617076233
1711795435977170000,5.976169921875,-0.056518006035685533,-0.9627946460753679,-0.2582284912568517
1711795435987145700,5.986145751953125,-0.3409486956447363,-0.995819109929353,-0.27854080958655103
1711795435997121800,5.996121826171875,-0.5656687206566333,-1.0869304365709422,-0.2782626136996783
1711795436007096800,6.006096923828125,-0.6549000787705183,-1.1231444902464747,-0.3095349549230188
1711795436017072600,6.01607275390625,-0.5363578704982995,-1.0138583322279155,-0.3449033515546471
1711795436027048700,6.026048583984375,-0.3896504749715328,-0.8411122400812804,-0.3076729604434222
1711795436037024800,6.036024658203125,-0.3505342701137066,-0.7685273347333074,-0.2584026422473602
1711795436047000600,6.04600048828125,-0.38309389293491836,-0.8211078551895916,-0.23128687271419912
1711795436056976000,6.055975830078125,-0.5373229161381721,-0.7923371032573282,-0.23654194369819015
1711795436066951700,6.06595166015625,-0.6676923403263092,-0.6267291924275458,-0.18884408071693032
1711795436076927700,6.075927734375,-0.7224988662689924,-0.4254239452727139,-0.10701218520458787
1711795436086903800,6.08590380859375,-0.7873930709838867,-0.32956922349631784,-0.06211798146720975
1711795436096879600,6.095879638671875,-0.8226929324239491,-0.3053472209095955,-0.06587857610974461
1711795436106856000,6.10585595703125,-0.7889724491298198,-0.19229688805192707,-0.004608078317344188
1711795436116830700,6.115830810546875,-0.6805968300849199,0.0056100949667394154,0.09515289364997297
1711795436126806800,6.125806884765625,-0.5320838464409112,0.1314040279328823,0.13972820416390894
1711795436136782600,6.135782470703125,-0.4123737634330988,0.15186580120325088,0.13362685508150607
1711795436146759000,6.145759033203125,-0.2628384510040283,0.11021525556221604,0.023033340791426597
1711795436156734700,6.155734619140625,-0.07144435701072216,0.08692527312859892,-0.08578731860723346
1711795436166709800,6.165709716796875,0.10835457625687121,0.19767901948168873,-0.11249321043156087
1711795436176685800,6.175685791015625,0.23543548029363154,0.3919052681609988,-0.10664506892524658
1711795436186661600,6.18566162109375,0.26166473104953764,0.5418303105600178,-0.12510149372257293
1711795436196638000,6.195637939453125,0.24050386959910391,0.5780090006612241,-0.11015764362346381
1711795436206613800,6.20561376953125,0.17808745317459104,0.6006370120547712,-0.048599341865628955
1711795436216588800,6.2155888671875,0.0693815792620182,0.7031573292002081,0.026080526467598973
1711795436226564600,6.225564697265625,0.014259996020793914,0.8392445465132594,0.04085102929379791
1711795436236540700,6.235540771484375,0.08461538875102996,0.9998080334350467,0.035699418684281406
1711795436246516700,6.245516845703125,0.1546580622702837,1.0870185532458125,0.0702761534815654
1711795436256492800,6.255492919921875,0.16207447600662708,1.0061806372068822,-0.04621295818574726
1711795436266468900,6.26546875,0.18116379188001155,0.8524185008630156,-0.15971527259461582
1711795436276443600,6.275443603515625,0.257214181381464,0.723241793590784,-0.26789061982706186
1711795436286420000,6.285419921875,0.3260392958045006,0.6472426958851516,-0.3918869287867099
1711795436296395800,6.295395751953125,0.21624562665522098,0.8268903841137886,-0.31122626901082695
1711795436306371600,6.30537158203125,-0.007515197935700416,1.0197098347350955,-0.11228672807402908
1711795436316348000,6.315347900390625,-0.09032441404759883,1.14202264758721,0.08087521584201604
1711795436326322700,6.32532275390625,-0.15763853938579558,1.1999199791520834,0.14025591783244162
1711795436336298800,6.335298828125,-0.30639877578914165,1.0620654599055648,0.15233670665062962
1711795436346274800,6.34527490234375,-0.3212093914300203,0.8178180198639631,0.19391710966490208
1711795436356251000,6.3552509765625,-0.15388123267889023,0.6586087240301072,0.27548520314190533
1711795436366226700,6.365226806640625,0.010248422291874885,0.6149015381202101,0.4416179050307721
1711795436376202000,6.375201904296875,0.14443302085399626,0.6142614866510033,0.5829695091454312
1711795436386177800,6.385177734375,0.3628092297971248,0.5849437683604657,0.6777827955774962
1711795436396153600,6.395153564453125,0.45548283731937406,0.5780088545307517,0.7622856638647616
1711795436406130000,6.4051298828125,0.38868601385354995,0.5013232358656823,0.7045647848453372
1711795436416105700,6.415105712890625,0.287020706102252,0.42279841907471416,0.678346566940099
1711795436426081500,6.42508154296875,0.0822352156162262,0.4597787809476256,0.6912273835621774
1711795436436056800,6.435056884765625,-0.22095628856420516,0.5371307545669377,0.6275630129031836
1711795436446032600,6.44503271484375,-0.4878185882568359,0.6133224522352219,0.5053619167972356
1711795436456008700,6.4550087890625,-0.7309884621948003,0.6676401717476547,0.3910958514742553
1711795436465984800,6.46498486328125,-0.9279980579823255,0.6382612247891724,0.24593155720364301
1711795436475960800,6.4749609375,-0.9761895496994256,0.5168735639579594,0.13507378422049804
1711795436485935600,6.484935546875,-0.8689525792956352,0.4487982449889183,0.09182381315934471
1711795436495912000,6.494911865234375,-0.6389823786705732,0.4038767148531973,0.04523689796151593
1711795436505887700,6.5048876953125,-0.264131413424015,0.3010283347971737,-0.020001813908689655
1711795436515863600,6.514863525390625,0.19648761774003504,0.11439034928977489,-0.1433851375025697
1711795436525840000,6.52483984375,0.5238105236142874,-0.07158142739385366,-0.2432950164212845
1711795436535814700,6.534814697265625,0.7460831554740667,-0.1645528488188982,-0.3037048057311214
1711795436545790700,6.544790771484375,0.885213978266716,-0.25072964166775347,-0.3318548136828467
1711795436555766800,6.554766845703125,0.831932469934225,-0.3344295230090618,-0.321916991710104
1711795436565742800,6.564742919921875,0.6531470976233482,-0.4372843328058719,-0.3211323076058179
1711795436575718700,6.57471875,0.5191466234564781,-0.4722385956786573,-0.29321808117134496
1711795436585694000,6.58469384765625,0.4897007487416267,-0.4172960222661495,-0.25341460643541064
1711795436595669800,6.594669677734375,0.48059682030975814,-0.35100247214734553,-0.20484644515933467
1711795436605645600,6.6046455078125,0.49965398747920986,-0.2646056068070233,-0.10510947512211277
1711795436615622000,6.614621826171875,0.44403848324120043,-0.17922697859853506,-0.0470365814943565
1711795436625597700,6.62459765625,0.35519174053072927,-0.1072965916365385,-0.07312337787253782
1711795436635573800,6.63457373046875,0.26973814738988877,-0.10517492330744863,-0.08013406948535702
1711795436645548800,6.644548828125,0.22655483922362327,-0.13700433215796948,-0.05426383846730459
1711795436655524600,6.654524658203125,0.2784562913745642,-0.14103767932727931,-0.023093592211836947
1711795436665500700,6.664500732421875,0.29799861171245573,-0.13977087426185608,0.01491832749878522
1711795436675476700,6.674476806640625,0.24375673391520974,-0.17345701689496634,0.08293867857730947
1711795436685452800,6.684452880859375,0.13422843770384787,-0.22981150293201208,0.12298015418704598
1711795436695427600,6.694427490234375,-0.03572188624441623,-0.27956074548512694,0.19528489088676868
1711795436705404000,6.70440380859375,-0.3071668375521898,-0.3594812544181943,0.19619455307759343
1711795436715379700,6.714379638671875,-0.44774435202181334,-0.4610132911786437,0.11715695532574318
1711795436725355800,6.724355712890625,-0.47906011226177214,-0.5532609283737838,0.07866092819287442
1711795436735331800,6.734331787109375,-0.4085632652342319,-0.6128302848041057,0.06735205076236743
1711795436745306600,6.744306640625,-0.2934627218484878,-0.6586050707682967,0.09848543560616671
1711795436755282700,6.75428271484375,-0.18819091403782368,-0.7107660506382584,0.1598940632276237
1711795436765258800,6.7642587890625,-0.11426058543026446,-0.7922603847593068,0.1654696714028716
1711795436775234800,6.77423486328125,-0.053768415066599844,-0.8965687543652952,0.13284694761703722
1711795436785211000,6.7842109375,-0.06555529897212982,-0.9366464977316558,0.14726685604043305
1711795436795186000,6.79418603515625,-0.15364099418222904,-0.9396841118618845,0.18957392936144024
1711795436805161700,6.80416162109375,-0.30877368822693824,-0.9014385523587465,0.26462893288368355
1711795436815137800,6.8141376953125,-0.4135129965960979,-0.8096570713706314,0.3176497627196833
1711795436825113900,6.82411376953125,-0.4549479997903108,-0.8419481063835322,0.35761304939351973
1711795436835089700,6.834089599609375,-0.4450274942785501,-0.8955981557674706,0.4264357161311432
1711795436845064700,6.844064697265625,-0.49203883630037304,-0.8809126278109848,0.5014444876251742
1711795436855040800,6.854040771484375,-0.609843962469697,-0.8161587083496152,0.5381583440490066
1711795436865016600,6.8640166015625,-0.7427098796486854,-0.805767370455712,0.5184568145614117
1711795436874993000,6.873992919921875,-0.9809417126625776,-0.7804206016227603,0.49426133465543387
1711795436884968700,6.88396875,-1.2132242818832397,-0.7747789424739777,0.5082173792935908
1711795436894944800,6.89394482421875,-1.3110130404621363,-0.8403146599628031,0.5244608042165637
1711795436904919800,6.903919921875,-1.2798369809538126,-0.9856738557510077,0.4877842110631987
1711795436914896000,6.913895751953125,-1.0468997472167014,-0.9805306476436555,0.43241632491070775
1711795436924871700,6.92387158203125,-0.7189438041359186,-0.7920568250112235,0.3942205958986655
1711795436934847700,6.93384765625,-0.42734570711553094,-0.5351997865043581,0.42462183510959145
1711795436944823800,6.94382373046875,-0.3858019828498363,-0.41129941219985483,0.4652531572381034
1711795436954798600,6.953798583984375,-0.4936310739278793,-0.40952831087410446,0.3935959977269172
1711795436964775000,6.96377490234375,-0.5823579896509647,-0.35676001276075836,0.27783991304188965
1711795436974750700,6.973750732421875,-0.6207698456317186,-0.2281922311671078,0.1920741486793384
1711795436984726500,6.9837265625,-0.6640764879167079,-0.11166077819541095,0.13257685283822937
1711795436994702300,6.993702392578125,-0.6191366914719343,-0.05651216081678867,0.062440377255412745
1711795437004677400,7.003677490234375,-0.5010965875029564,-0.040479163774102926,-0.0061397106147021985
1711795437014653400,7.0136533203125,-0.35685295174121856,0.05986658581122756,-0.0178748563414847
1711795437024629200,7.023629150390625,-0.257320564365387,0.25939649385660885,0.03905945600217674
1711795437034605300,7.033605224609375,-0.3856389012426138,0.4510308263465762,0.06594842647556215
1711795437044581400,7.043581298828125,-0.5454495239704847,0.5184918128095567,0.06746364421094768
1711795437054556400,7.053556396484375,-0.5963590424746275,0.5012747205488384,0.04927974361153319
1711795437064532200,7.0635322265625,-0.5100310045868158,0.5368614361062646,0.032624984241579655
1711795437074508500,7.073508544921875,-0.29325697014331814,0.5979169394411147,0.014891252262191845
1711795437084484400,7.083484375,-0.11075929931104182,0.5896573528788983,0.046255326889595015
1711795437094460400,7.09346044921875,0.010554127240180969,0.5548403065197169,0.08053265861519612
1711795437104435500,7.103435546875,0.14388473932147025,0.5230353014580905,0.14687011180780826
1711795437114411300,7.113411376953125,0.24546119974553585,0.5143645037464797,0.2371235429784283
1711795437124387300,7.12338720703125,0.29519758281707764,0.585046790343523,0.2644828572101891
1711795437134363400,7.13336328125,0.29140637384057044,0.6657470514774322,0.22191505059376357
1711795437144339200,7.143339111328125,0.30428397559225556,0.7101898581854998,0.13391367266625165
1711795437154314200,7.153314208984375,0.2665244460403919,0.7035042429417371,0.08455667170058004
1711795437164290300,7.163290283203125,0.2183358769327402,0.6428226874858141,0.022135994659480636
1711795437174266400,7.173266357421875,0.23410569299459455,0.6388293800659477,-0.04705813117246143
1711795437184242400,7.183242431640625,0.4092290356665849,0.6694210638150573,-0.08111231253352015
1711795437194218500,7.193218505859375,0.6787585087418556,0.677817720760405,-0.1599621965603903
1711795437204194300,7.2031943359375,0.8619172738313674,0.6265491596855223,-0.28574305084925145
1711795437214169300,7.21316943359375,1.0184136574447153,0.5599708012759685,-0.3714933619143441
1711795437224145400,7.2231455078125,1.0480758052587509,0.5937304475367069,-0.40390930194854735
1711795437234121200,7.233121337890625,0.8439496554642916,0.6448818119727074,-0.36903022320382295
1711795437244097500,7.24309765625,0.5859294183969498,0.7066244207888841,-0.3412541813973337
1711795437254073300,7.2530732421875,0.2668430104702711,0.7454208921730517,-0.3760574184268713
1711795437264048400,7.26304833984375,-0.0000672200173139572,0.7909609925985336,-0.3858099104279652
1711795437274024400,7.2730244140625,-0.08630933318734169,0.8640621769055724,-0.3827634188715368
1711795437284000500,7.28300048828125,-0.03202829242348671,0.9174741797499358,-0.3627652079923078
1711795437293976300,7.292976318359375,0.030983167284727095,0.9326645884886383,-0.36830497766919434
1711795437303952400,7.302952392578125,0.015420271971821784,0.9378871454425155,-0.3996540191242471
1711795437313927400,7.312927490234375,-0.08275310201048851,0.9087585199832916,-0.3828738935086876
1711795437323903200,7.3229033203125,-0.10896423258781432,0.8528488551042973,-0.33378446657117455
1711795437333879600,7.332879638671875,-0.138105571398139,0.7877309246361255,-0.24433122760122641
1711795437343855400,7.34285546875,-0.20086101051867006,0.6306504575245082,-0.17754677042663097
1711795437353831200,7.3528310546875,-0.13701368450820445,0.43497722490727897,-0.14314993137405252
1711795437363806500,7.362806396484375,-0.04089665853381157,0.26088044880405065,-0.06490854833407793
1711795437373782300,7.3727822265625,0.04354395817220211,0.10137465424165129,-0.07466532378464472
1711795437383758300,7.38275830078125,0.1862596537142992,0.020676292803883552,-0.10613875423776917
1711795437393734400,7.392734375,0.396709161311388,-0.01940583447664976,-0.11625059020370244
1711795437403710500,7.40271044921875,0.6109586457133293,-0.053328123953193425,-0.12873266243231482
1711795437413685200,7.412685302734375,0.7306120300978421,-0.09627850014641881,-0.15755754657145588
1711795437423661600,7.42266162109375,0.6976607776105404,-0.11462751904651522,-0.13536410893658174
1711795437433637400,7.432637451171875,0.5399480039447546,-0.17578677501678466,-0.12745503457877785
1711795437443613200,7.44261328125,0.3919114056408405,-0.23174027903750538,-0.14220473207896575
1711795437453589500,7.452589599609375,0.32028760040998455,-0.27427432951480146,-0.15328807082502172
1711795437463564300,7.462564208984375,0.301274856904149,-0.30535262773707506,-0.19754328253911807
1711795437473540400,7.472540283203125,0.30253333253264425,-0.28546500109285117,-0.3341520577745512
1711795437483516400,7.482516357421875,0.2533183429867029,-0.21546704349815846,-0.38655492010898884
1711795437493492500,7.492492431640625,0.10246551821827887,-0.15016513476520776,-0.39583402244467286
1711795437503468300,7.50246826171875,-0.10847498776614665,-0.09523498244285583,-0.4464402106206864
1711795437513443600,7.512443603515625,-0.30768823107779025,-0.06329597573801875,-0.4439040797391906
1711795437523419400,7.52241943359375,-0.46781858727931974,-0.04718962119817734,-0.40106538375951345
1711795437533395200,7.532395263671875,-0.5507756874293088,-0.012726064451783895,-0.3941271089289337
1711795437543371500,7.54237158203125,-0.4030740201681852,-0.04046308942213654,-0.39306433853562917
1711795437553347300,7.552347412109375,-0.19434183788299558,-0.10372165575921535,-0.3933443975860253
1711795437563322400,7.562322265625,-0.13259586806595325,-0.19245383217930792,-0.43146333503481
1711795437573298400,7.57229833984375,-0.1248988838225603,-0.3115650725111365,-0.46030678687710314
1711795437583274200,7.582274169921875,-0.09578618658483028,-0.40528263612836596,-0.49304954771287735
1711795437593250300,7.592250244140625,-0.048335868623852724,-0.4741809619180858,-0.4369425701634958
1711795437603226400,7.602226318359375,-0.042835517641901966,-0.4919347914040088,-0.38315165100414306
1711795437613202400,7.612202392578125,-0.07760229511857032,-0.5454106532648205,-0.3577409500895068
1711795437623177200,7.62217724609375,-0.0353179816186428,-0.6472447417117655,-0.32830683887768536
1711795437633153500,7.632153564453125,-0.01757715774476528,-0.6722123019687831,-0.33568427231051023
1711795437643129300,7.64212939453125,-0.01483048938512802,-0.7030825103983283,-0.41833121053278444
1711795437653105400,7.65210546875,-0.00008767828345298767,-0.7282356563553214,-0.49272360369414087
1711795437663081500,7.66208154296875,-0.03150280724465847,-0.7160672257862984,-0.4796306056261062
1711795437673056300,7.67205615234375,-0.14154080654382706,-0.6843342630475759,-0.4088943603521213
1711795437683032300,7.6820322265625,-0.2570440855115652,-0.6650086542002857,-0.3878336713405326
1711795437693008400,7.69200830078125,-0.3458189320296049,-0.6504980444192886,-0.40743141166009006
1711795437702984400,7.701984375,-0.3937023807108402,-0.679097239176929,-0.40556817507147785
1711795437712960500,7.71196044921875,-0.36694530668854713,-0.6290918299056589,-0.35508835322149096
1711795437722935600,7.721935546875,-0.3319254312336445,-0.5228853715933859,-0.32379853114038704
1711795437732911400,7.731911376953125,-0.3953419646114111,-0.4973604697145521,-0.30751952344737943
1711795437742887400,7.741887451171875,-0.5186363358467817,-0.5852471352212131,-0.32108054088596255
1711795437752863500,7.751863525390625,-0.6161515381813049,-0.7026442651115358,-0.3985867917515337
1711795437762839300,7.76183935546875,-0.5968810205221176,-0.639045360904187,-0.42392848255056886
1711795437772814300,7.771814453125,-0.4245440936982631,-0.402779713396728,-0.32528592015393076
1711795437782790400,7.781790283203125,-0.2756780588328838,-0.26934067250490185,-0.26769442140152677
1711795437792766200,7.79176611328125,-0.28148177667558194,-0.3178849231824279,-0.2461424782742746
1711795437802742500,7.801742431640625,-0.37358430631160733,-0.3735321377329528,-0.17168628089539706
1711795437812718300,7.81171826171875,-0.4661439320653677,-0.32863720334321256,-0.13145451601110397
1711795437822693400,7.821693359375,-0.5577437728762626,-0.2489073946766555,-0.09819721151562406
1711795437832669400,7.83166943359375,-0.6192611946344375,-0.23012845992669462,-0.052441952235810455
1711795437842645500,7.8416455078125,-0.6629734951108693,-0.24485797315537927,-0.042099001794587816
1711795437852621300,7.851621337890625,-0.5976765548139811,-0.20095117302015422,-0.06836637433748692
1711795437862597400,7.861597412109375,-0.47441550132632254,-0.0968286813750863,-0.1014472628201358
1711795437872572400,7.871572509765625,-0.35802959430515763,0.07210603578984737,-0.08469782460378482
1711795437882548200,7.88154833984375,-0.38496903915703296,0.2703163856692612,0.04259741630339995
1711795437892524500,7.891524658203125,-0.5150917951077223,0.3957451385848224,0.14688819545377044
1711795437902500400,7.901500244140625,-0.606011252439022,0.4311448071375489,0.21946590387597678
1711795437912476400,7.911476318359375,-0.6471598399072885,0.44497371826469895,0.24631005339352413
1711795437922451500,7.921451416015625,-0.5255985760748386,0.45328488888368007,0.24479997762413694
1711795437932427500,7.931427490234375,-0.22831951080858706,0.5775292543202638,0.2627925295030698
1711795437942403300,7.9414033203125,0.07076806518435477,0.7481285436965525,0.3349594286346808
1711795437952379400,7.95137939453125,0.25562545088529587,0.8413929567188024,0.42080541862659154
1711795437962355500,7.96135546875,0.37185879769325253,0.9055676149874925,0.4662893318854272
1711795437972330200,7.971330322265625,0.4490957666307687,0.9692176648601889,0.4589988460836932
1711795437982306600,7.981306640625,0.47620998352766036,1.0039588695041834,0.5019480532331392
1711795437992282600,7.99128271484375,0.40115912645757196,0.9853744344130158,0.5897946424577385
1711795438002258400,8.001258544921875,0.273971254914999,0.9566102583520114,0.6250696617174893
1711795438012234800,8.01123486328125,0.125565238776803,0.9653250413358211,0.6219818517699838
1711795438022209500,8.02120947265625,-0.05691840353012085,0.9579273322999476,0.569359245737642
1711795438032185600,8.031185546875,-0.18834931946992872,0.9217400205008685,0.5088234554279595
1711795438042161700,8.04116162109375,-0.36324469860494135,0.9093409960463642,0.5119786315232515
1711795438052137700,8.0511376953125,-0.44222997251451013,0.8789635395698249,0.5068011192874983
1711795438062113500,8.061113525390626,-0.38534605577588077,0.8278631746686994,0.5334179811215027
1711795438072088600,8.071088623046874,-0.2321960599809885,0.7536521294236183,0.562830172762461
1711795438082064600,8.081064697265624,-0.018096213182806967,0.7031032609254121,0.5748214931989089
1711795438092040400,8.09104052734375,0.1381190154016018,0.6397092316403985,0.5485835111472755
1711795438102016800,8.101016845703125,0.18978139809966085,0.5829558094136417,0.5268415984058752
1711795438111992600,8.11099267578125,0.16072890661656855,0.5675631561011075,0.4980700062233954
1711795438121967600,8.120967529296875,0.08521277012228966,0.4575926690801978,0.4454917142568156
1711795438131943700,8.130943603515625,-0.028088614886999128,0.2571096980936825,0.37855347302630543
1711795438141919500,8.14091943359375,-0.03040039896070957,0.12153539873883128,0.29144128075717013
1711795438151895600,8.1508955078125,0.1282020170211792,0.0937111338764429,0.2854917247029953
1711795438161871600,8.16087158203125,0.26800796259641646,0.13883242436796425,0.37604777381569143
1711795438171846700,8.1708466796875,0.36460488104224203,0.16443082987442612,0.41939061992522325
1711795438181822500,8.180822509765624,0.39307986489832397,0.22249270435124635,0.417867684674263
1711795438191798800,8.190798828125,0.30283845295906064,0.3329832697235048,0.43171559276282784
1711795438201774600,8.200774658203125,0.08600479728281497,0.4029949635826051,0.3855466198492795
1711795438211750400,8.21075048828125,-0.2429921792834997,0.39894963371455666,0.26396034943973645
1711795438221725700,8.2207255859375,-0.5798194110840559,0.34153394818678495,0.19640514535466208
1711795438231701500,8.230701416015625,-0.8495902916997671,0.2750396147988736,0.13937727183438836
1711795438241677600,8.240677490234376,-0.9247896173298359,0.18062004039213062,0.08585911433496513
1711795438251653600,8.250653564453126,-0.7826140200138092,0.12423749730437993,0.09021863385187462
1711795438261629700,8.260629638671874,-0.49777241151630874,0.0944517231106758,0.13595708812735974
1711795438271604500,8.2706044921875,-0.1569803677380085,0.01810264292359352,0.15268611374334431
1711795438281580800,8.280580810546875,0.16501462111175058,-0.055472880896925925,0.15586597675532102
1711795438291556600,8.290556640625,0.42459143997132776,-0.0895275645814836,0.15329261913597583
1711795438301532400,8.300532470703125,0.5803653545290232,-0.14967150602936743,0.1595126992272213
1711795438311508700,8.3105087890625,0.657446256121993,-0.220643277092278,0.13196982685578987
1711795438321483500,8.3204833984375,0.6405623413383961,-0.30641645757630465,0.09264991611940786
1711795438331459600,8.33045947265625,0.5860831476539373,-0.3409935576997697,0.1354205426984001
1711795438341435600,8.340435546875,0.48319677367508407,-0.3218101338021457,0.18262323344070464
1711795438351411500,8.350411376953126,0.38212943181693554,-0.3244165169082582,0.18229336216552183
1711795438361387500,8.360387451171874,0.3533212704837322,-0.36022140526100993,0.1812910715214908
1711795438371362600,8.370362548828124,0.2674994285523891,-0.3552216972775757,0.1961713548650965
1711795438381338600,8.380338623046875,0.14880349102318285,-0.3723750766523182,0.2004806328989565
1711795438391314400,8.390314453125,0.01563829863667488,-0.38904856355562806,0.21815955225145442
1711795438401290800,8.400290771484375,-0.11730711351931095,-0.38785511598736044,0.18570203809784724
1711795438411266600,8.4102666015625,-0.1622521706610918,-0.4238106648571789,0.19064674622472375
1711795438421241600,8.42024169921875,-0.15042378570139409,-0.4633854271374643,0.22973668413013218
1711795438431217700,8.4302177734375,-0.026437925070524212,-0.48251127562895413,0.2692050999591127
1711795438441193500,8.440193359375,0.12352116572856903,-0.5155858622349798,0.3194953175211325
1711795438451169500,8.45016943359375,0.2216992158859968,-0.5498847299389541,0.34590620845425873
1711795438461145600,8.4601455078125,0.29211481437087056,-0.5915158402271569,0.3308443579986691
1711795438471120600,8.47012060546875,0.3017155864089727,-0.6296412804819643,0.30528511545881626
1711795438481096400,8.480096435546875,0.28100422229170796,-0.6631361383266746,0.26324193550469355
1711795438491072800,8.49007275390625,0.23549276343882083,-0.715115039627999,0.2633480444939807
1711795438501048600,8.500048583984375,0.1547626916885376,-0.7611030299514532,0.23357202450931072
1711795438511024400,8.5100244140625,0.06407996572256087,-0.7786980156138539,0.19660127071496097
1711795438520999700,8.519999755859375,0.010723054066300391,-0.7633215827837586,0.2328729545955546
1711795438530975500,8.5299755859375,0.04868190558254718,-0.7453451965883374,0.24762170224767177
1711795438540951600,8.53995166015625,0.12517594719827174,-0.7862376173384488,0.2643211638424545
1711795438550927600,8.549927734375,0.11625380507409572,-0.7881577717460692,0.3107745431879535
1711795438560903400,8.5599033203125,0.049833998227119446,-0.7738266101852059,0.3154614588951692
1711795438570878500,8.56987841796875,-0.04842939212620258,-0.7669377274543047,0.3039459027443081
1711795438580854500,8.5798544921875,-0.2374286999374628,-0.744079414436221,0.328209333319962
1711795438590830600,8.58983056640625,-0.44397769296467304,-0.7264680621609091,0.383870430265367
1711795438600806400,8.599806396484375,-0.6131167005300522,-0.7140327973492443,0.3696738548696041
1711795438610782700,8.60978271484375,-0.7092074230194091,-0.6973340298742056,0.31372542888280003
1711795438620757500,8.619757568359375,-0.7302396896541118,-0.6812872965671122,0.3679502824800089
1711795438630733600,8.629733642578126,-0.7577133875131606,-0.6228343769460916,0.4291891795577481
1711795438640709600,8.639709716796874,-0.7558095997184514,-0.6121484400197863,0.42353283429648725
1711795438650685400,8.649685546875,-0.6982260102778672,-0.7486131123431027,0.3961760773479938
1711795438660661800,8.659661865234375,-0.5058551802068948,-0.8770277492016554,0.36841731546986844
1711795438670636500,8.669636474609375,-0.234147778570652,-0.8357220714755356,0.38497039086390283
1711795438680612600,8.679612548828125,-0.05262918190360069,-0.6922849297910928,0.4465813361244276
1711795438690588400,8.68958837890625,-0.1530149712383747,-0.5979235153123736,0.5122915333973244
1711795438700564700,8.699564697265625,-0.3291051131159067,-0.5282533283673226,0.5265274544227868
1711795438710540500,8.70954052734375,-0.4543517874628305,-0.3919404856048524,0.540677341132611
1711795438720515600,8.719515625,-0.6541589050143957,-0.22055779076591134,0.5054134277887642
1711795438730491600,8.72949169921875,-0.9362094214886426,-0.15676540981307624,0.40369872793778777
1711795438740467500,8.739467529296874,-1.0873504155486822,-0.14357289689332245,0.2945248163883574
1711795438750443800,8.74944384765625,-1.195600946909189,-0.028755992754548786,0.2506094676204957
1711795438760419600,8.759419677734375,-1.335144442155957,0.13103037231490014,0.21503458863133562
1711795438770394600,8.76939453125,-1.409347742486,0.2770287427894771,0.20585534820724277
1711795438780370400,8.779370361328125,-1.2944348306268454,0.43014600535854697,0.16689732958581296
1711795438790346500,8.789346435546875,-1.103917519468069,0.4664886538498103,0.1486950713458005
1711795438800322600,8.799322509765625,-0.9382406350553035,0.46142245650142427,0.1466793019434437
1711795438810298600,8.809298583984376,-0.7861948011100292,0.42859234617576003,0.0951116300578229
1711795438820273700,8.819273681640626,-0.6513479392468929,0.39790304727107284,0.04302502603174653
1711795438830249500,8.82924951171875,-0.5401636925220489,0.4031961852431297,0.059171013895655045
1711795438840225800,8.839225830078124,-0.4971235922187566,0.3834579039417207,0.014703520270902663
1711795438850201600,8.84920166015625,-0.41264147445857524,0.3531104042120278,-0.09855193410427308
1711795438860177400,8.859177490234375,-0.27447277469635006,0.41549598710685964,-0.1134385649902746
1711795438870152400,8.86915234375,-0.10672785183787345,0.5404860563442111,-0.11737624236592091
1711795438880128500,8.87912841796875,0.03753507314622402,0.6220230605632067,-0.17991097880732268
1711795438890104600,8.8891044921875,0.1734106935352087,0.6692734720379113,-0.32141609298326074
1711795438900080600,8.89908056640625,0.24701252084076403,0.7758455487921834,-0.4892461003093049
1711795438910056700,8.909056640625,0.2434925300210714,0.8611226163223386,-0.590066518201679
1711795438920031500,8.919031494140626,0.15274258403778077,0.9712301737263798,-0.5512808239398523
1711795438930007800,8.9290078125,0.054557519617676735,1.1002075590342282,-0.4324468661794439
1711795438939983600,8.938983642578124,0.015281155762076377,1.1823027816578746,-0.36500776275470853
1711795438949959400,8.94895947265625,0.0800473501831293,1.2105049399219452,-0.42091750069893896
1711795438959934500,8.9589345703125,0.19353344410955906,1.2085394850678741,-0.4723644870806485
1711795438969910500,8.96891064453125,0.2849585128754377,1.1735732394963503,-0.5641064397759735
1711795438979886600,8.978886474609375,0.38150574696063994,1.0914712948709726,-0.6612989129621535
1711795438989862400,8.9888623046875,0.4275590576052665,1.0712062132164835,-0.6796440594047307
1711795438999838500,8.99883837890625,0.4592845676898956,1.0730554943449795,-0.6249046804141253
1711795439009813500,9.0088134765625,0.5569061530083418,1.04776016343832,-0.6210737239491194
1711795439019789600,9.01878955078125,0.7051508411049843,0.9534216914437711,-0.6559902120947837
1711795439029765600,9.028765625,0.8085568550437688,0.8245324228107929,-0.6166652598571032
1711795439039741400,9.038741455078124,0.8469131814450025,0.7662398083180189,-0.49775403560940173
1711795439049717500,9.048717529296875,0.8041828777432442,0.7404546480678021,-0.3997620460759848
1711795439059692500,9.058692626953125,0.6792652892202139,0.7362193485856056,-0.34552294475771483
1711795439069668600,9.068668701171875,0.5414496406793594,0.7636687887862325,-0.3143861943464726
1711795439079644400,9.07864453125,0.4104506864160299,0.7616052803851664,-0.31848573861978946
1711795439089620500,9.088620361328125,0.1970961050271988,0.7662595359317957,-0.2902745202664286
1711795439099596500,9.098596435546876,-0.09114332921504974,0.7570309582069515,-0.27014685605494304
1711795439109571600,9.108571533203126,-0.24083003281354903,0.7394906253412366,-0.26095537720378487
1711795439119547600,9.118547607421876,-0.32067046224772927,0.7549531290195882,-0.20762992013171314
1711795439129523500,9.1285234375,-0.40450142262279987,0.757875007815659,-0.15473320986572653
1711795439139499500,9.13849951171875,-0.4445142840594053,0.6983212873458862,-0.0949556723111309
1711795439149475600,9.1484755859375,-0.42491000440120696,0.5801777230024338,-0.04040629946729168
1711795439159450600,9.15845068359375,-0.3257148861557245,0.4920401514746248,-0.009569952208152972
1711795439169426400,9.168426513671875,-0.1572194371908903,0.39589083066582675,-0.005172383969486691
1711795439179402500,9.178402587890625,0.02982522942125797,0.2399569032408297,0.03214795044751372
1711795439189378600,9.188378662109375,0.21574176878631113,0.13314137311950325,0.04474129646429792
1711795439199354400,9.198354248046876,0.32025428266227246,0.10027999087274074,0.07569301373141352
1711795439209329700,9.20832958984375,0.3931961847543716,0.05003931154087186,0.08811398972282186
1711795439219305500,9.218305419921874,0.4032587290853262,0.004137245935201645,0.06620823732237331
1711795439229281500,9.228281494140624,0.39220892728269097,-0.027307109120488164,0.06947362319333479
1711795439239257600,9.238257568359375,0.37542204313278194,-0.013960866943746804,0.07957074564732611
1711795439249233400,9.2482333984375,0.23251403988897798,0.07805544571354985,0.054287867796863426
1711795439259208400,9.25820849609375,0.058013797551393506,0.11092486513629556,0.01833345600478351
1711795439269184500,9.2681845703125,-0.004388005825877189,0.12412278488352894,-0.02607045716473367
1711795439279160600,9.27816064453125,-0.0005921206742525101,0.1840318946622312,-0.07158706255019642
1711795439289136400,9.288136474609376,-0.05737257703840732,0.266672476208955,-0.06309488650823478
1711795439299112400,9.298112548828126,-0.17045476633906365,0.30337782053276896,-0.05535952018294483
1711795439309087500,9.30808740234375,-0.2511345692068338,0.3182752376742661,-0.07406016553230584
1711795439319063600,9.3180634765625,-0.3596919745594263,0.30176819337904454,-0.13133385790665633
1711795439329039600,9.32803955078125,-0.4233054918140173,0.23041706760972738,-0.19902493593161924
1711795439339015400,9.338015380859375,-0.4307318424224853,0.14851853660196065,-0.21581631359355524
1711795439348990500,9.347990478515625,-0.43395080446898937,0.07577829456180334,-0.17193694945452734
1711795439358966500,9.357966552734375,-0.332097865191102,-0.011977145780622958,-0.14390071320873685
1711795439368942600,9.367942626953125,-0.1217623393625021,-0.10483020152300596,-0.15583340792628003
1711795439378918400,9.37791845703125,0.13348784846961498,-0.21897402870580554,-0.17802288177208975
1711795439388894500,9.38789453125,0.39926819814443587,-0.30152532453387976,-0.18927173154447227
1711795439398869500,9.397869384765626,0.5872071832478046,-0.3328099589832127,-0.18155244413772598
1711795439408845300,9.40784521484375,0.5854968721985817,-0.36791020619794723,-0.1582256733576767
1711795439418821600,9.417821533203124,0.5118424379229545,-0.40476591877788304,-0.16804540364239365
1711795439428797400,9.42779736328125,0.3699789752960205,-0.40535964688733217,-0.1496756159489043
1711795439438773500,9.4377734375,0.1955786862015724,-0.4153652003340423,-0.08027120380057022
1711795439448748500,9.44774853515625,0.032227029865980146,-0.4427630564779043,-0.016743178580567473
1711795439458724600,9.457724609375,-0.08141980758011341,-0.4859750062167644,0.011441315021004993
1711795439468700400,9.467700439453125,-0.14630056829154492,-0.5534719407759606,0.018111918783659347
1711795439478676500,9.477676513671875,-0.1567272697597742,-0.627325697015971,-0.03126123759072506
1711795439488652500,9.487652587890626,-0.043884734433889384,-0.6990149686984718,-0.10954276312813162
1711795439498627300,9.49762744140625,0.0671206485927105,-0.6791057147443295,-0.14070137831130997
1711795439508603600,9.507603759765624,0.11278232957124709,-0.6162618666879832,-0.1014806718993932
1711795439518579500,9.517579345703124,0.08761924674212931,-0.5650672476321459,-0.07324749744255095
1711795439528555500,9.527555419921875,0.06556231323480606,-0.5676075797647238,-0.09868271174393593
1711795439538531600,9.537531494140625,-0.016703297519683837,-0.6074702190756798,-0.11640905956788919
1711795439548506600,9.547506591796875,-0.09660743983983992,-0.6797576027818024,-0.16951025203056633
1711795439558482400,9.557482421875,-0.15948621307909489,-0.7721417258381843,-0.2578219745488837
1711795439568458500,9.56745849609375,-0.23333938479721544,-0.8406913843207061,-0.35620650706384327
1711795439578434600,9.5774345703125,-0.19570494292974472,-0.863742151170969,-0.3734064655266702
1711795439588409300,9.587409423828126,-0.1314525432497263,-0.8664397196918725,-0.36417909337822346
1711795439598385700,9.5973857421875,-0.08378244505822659,-0.9178181708820163,-0.39799408655539154
1711795439608361500,9.607361572265624,-0.07204875264465808,-1.0022937127709388,-0.3675216452717781
1711795439618337300,9.617337158203124,-0.00571077886223793,-1.0367011554159224,-0.35995431529004124
1711795439628313600,9.627313720703125,0.029139585244655607,-1.0429754133798181,-0.36307781760543584
1711795439638288400,9.637288330078125,-0.02559796711504459,-1.1273182687997818,-0.4545420493379235
1711795439648264400,9.647264404296875,-0.09464929150938987,-1.231366380034387,-0.5425188773460686
1711795439658240500,9.657240478515625,-0.20488369016349314,-1.223485271395743,-0.5702056334339082
1711795439668216600,9.667216552734375,-0.3236708131074905,-1.1728133610397578,-0.5746591787766665
1711795439678192600,9.677192626953126,-0.46601007655262944,-1.1347856820710003,-0.5749842460125685
1711795439688167700,9.687167724609376,-0.6058411565691232,-1.115184178891778,-0.555274606283754
1711795439698143500,9.6971435546875,-0.621250322625041,-1.240125294420868,-0.5067567321565002
1711795439708119300,9.707119384765624,-0.5215893404334784,-1.3805180999733506,-0.4638678403595462
1711795439718095600,9.717095703125,-0.30694238114655015,-1.23408382229954,-0.3925129151979461
1711795439728071400,9.727071533203125,-0.1340057348638773,-0.8853691688284278,-0.21932196536064147
1711795439738046500,9.73704638671875,-0.12816402309834957,-0.6860122792623937,-0.049823458566796035
1711795439748022500,9.7470224609375,-0.21464871285259723,-0.7514503815956414,-0.004391604288760572
1711795439757998600,9.75699853515625,-0.313529942843318,-0.7131378943361342,0.02817497799620032
1711795439767974700,9.766974609375,-0.5053916543483734,-0.40041999852806326,0.11858184616286307
1711795439777949700,9.77694970703125,-0.6976309669941664,-0.047433805217593904,0.23156455714441834
1711795439787925500,9.786925537109376,-0.9089297848969697,0.2094881152190268,0.34480394630078226
1711795439797901300,9.7969013671875,-1.025926517292857,0.33679829796701666,0.3865119577500969
1711795439807877600,9.806877685546874,-0.9505635255336761,0.3977889193721115,0.3454690956786275
1711795439817853400,9.816853515625,-0.7434820330649614,0.4158769492484629,0.323066563604027
1711795439827828500,9.826828369140625,-0.48940556518733497,0.4161617575392127,0.24995936968130988
1711795439837804500,9.836804443359375,-0.2248848601847887,0.42742870922386644,0.23835401635514572
1711795439847780400,9.8467802734375,0.00851765297651291,0.5685420841358602,0.34299108819253743
1711795439857756700,9.856756591796875,0.11428805795907973,0.7857002955913543,0.3820280903343111
1711795439867732500,9.866732421875,0.1180015255242586,0.8817503938093781,0.46828386670351024
1711795439877707500,9.87670751953125,0.07043488770723343,0.939356048951298,0.4437332166843116
1711795439887683300,9.886683349609376,0.023798808738589285,0.9676724812448024,0.3510585497161373
1711795439897659600,9.89665966796875,0.011747720938920974,1.0078484242886305,0.2798827622474171
1711795439907635500,9.906635498046874,0.008253449082374572,1.0253786741517483,0.21851651246296241
1711795439917611500,9.916611572265625,0.06251578514575958,1.041217902188003,0.16001244717659427
1711795439927586600,9.926586669921875,0.08113163828849793,1.0927664492480456,0.2632996570413001
1711795439937562400,9.936562255859375,-0.0014729951620101928,1.1380816548764705,0.3998587113834917
1711795439947538700,9.94653857421875,-0.1288292090088129,1.1914439733602107,0.569944242551364
1711795439957514500,9.956514404296875,0.005915361523628235,1.2324287485688925,0.7048422135472298
1711795439967490600,9.966490478515626,0.263495453608036,1.2730553579896688,0.7508598683565855
1711795439977465300,9.97646533203125,0.40491000342369077,1.2887037396289407,0.7346436967667191
1711795439987441700,9.986441650390624,0.33282325685620306,1.260221887640655,0.7284682960674166
1711795439997417500,9.99641748046875,0.12505261307954788,1.2921746306098998,0.748819448570162
1711795440007393500,10.0063935546875,-0.011010054314136505,1.2313444604635237,0.8141887234508991
1711795440017368600,10.01636865234375,-0.018913374784588814,1.1043646787136792,0.8484376875985413
1711795440027344400,10.026344482421875,0.012359715357422828,1.030159478687495,0.9223419319167733
1711795440037320700,10.03632080078125,0.12469079402983188,0.992314608939737,0.9474417402513324
1711795440047296500,10.046296630859375,0.2831803972870111,0.8883785797774791,0.9447713519982993
1711795440057272300,10.056272216796875,0.39622459266483784,0.7305991706162691,0.846679445754364
1711795440067247400,10.066247314453125,0.3118915279865265,0.6327136736646294,0.7627268317610025
1711795440077223400,10.076223388671876,0.053636313119530675,0.6842264187589288,0.7282217739604413
1711795440087199500,10.086199462890624,-0.2831605235427618,0.8158036113016307,0.7615149717532098
1711795440097175600,10.096175537109374,-0.44309448038935656,0.8469821550279856,0.708026250410825
1711795440107151600,10.106151611328125,-0.41006431744694705,0.8169836148664354,0.5958075826043263
1711795440117126400,10.11612646484375,-0.30287703140378,0.7895723147191107,0.4627001848196611
1711795440127102700,10.126102783203125,-0.22110826425552366,0.7891898912727833,0.39403362195920194
1711795440137078500,10.13607861328125,-0.17086919235885142,0.8026930775769054,0.2912261219028383
1711795440147054300,10.146054443359375,-0.194167650359869,0.800868930889666,0.2537377739751711
1711795440157030700,10.15603076171875,-0.26188275771439073,0.7071743097566068,0.2720549364322796
1711795440167005400,10.16600537109375,-0.3356049965292215,0.5418133594252169,0.30527141572702676
1711795440176981500,10.1759814453125,-0.3024672815591097,0.3977534096673131,0.28985578339770435
1711795440186957600,10.18595751953125,-0.23271453089714048,0.31685178074240683,0.29203900918830183
1711795440196933600,10.19593359375,-0.13356734344661236,0.3063787559144199,0.3015835575271398
1711795440206908400,10.205908447265625,-0.020735914036631584,0.25702918020337817,0.347323089514859
1711795440216884700,10.215884765625,0.1770616172581911,0.26988646981939673,0.39926143961008637
1711795440226860500,10.225860595703125,0.32960078767836093,0.3321105785422027,0.43043369972612705
1711795440236836400,10.23583642578125,0.35496143890619275,0.3830145440883934,0.4307996104290709
1711795440246812700,10.245812744140625,0.16200082624852657,0.42760172770321364,0.5326107563918456
1711795440256787500,10.255787353515625,-0.14136252736747265,0.47388599755950267,0.6783606685306877
1711795440266763500,10.265763427734376,-0.5090636208593845,0.5232901530019939,0.7732257216826081
1711795440276739600,10.275739501953124,-0.8388309972763061,0.5741456762965769,0.8920797723829745
1711795440286715400,10.28571533203125,-1.0066039771854878,0.5796980497267097,1.0008101962149143
1711795440296691500,10.29569140625,-1.04574590100646,0.5688038038119674,1.042038278660178
1711795440306666500,10.30566650390625,-1.0372264944642782,0.4582015947587788,1.0417704215042292
1711795440316642600,10.315642578125,-0.8907494005620479,0.3012293372619897,1.0616622859321534
1711795440326618400,10.325618408203125,-0.6258715526849031,0.24609452921301125,1.148004571541026
1711795440336594700,10.3355947265625,-0.37219782038927074,0.17511903182305394,1.319228495621681
1711795440346569500,10.345569580078125,-0.2172211936891079,0.07933386815153062,1.4767124289676545
1711795440356545500,10.355545654296876,-0.1268155310988426,0.002948693737760186,1.535909006562829
1711795440366521600,10.365521484375,-0.01729191106259823,-0.024935923009738323,1.4866558769635856
1711795440376497400,10.375497314453124,0.02893909423649311,0.005291238275915384,1.5312261094436048
1711795440386473500,10.385473388671874,-0.10296645347774028,0.13651749848909675,1.596545553833246
1711795440396448500,10.395448486328124,-0.35333763709664345,0.3258403391662985,1.5702008600041268
1711795440406424600,10.405424560546875,-0.49520109972357745,0.4687255460564047,1.6242764413237571
1711795440416400400,10.415400390625,-0.6288713190227747,0.6841930279459804,1.736137856657803
1711795440426376700,10.425376708984375,-0.8283382448345422,0.8720424350697547,1.8066664139978588
1711795440436352500,10.4353525390625,-0.9682599257439375,0.9365309815932065,1.8677508511662482
1711795440446327600,10.44532763671875,-1.0751876840680836,0.9477321015000343,1.998909672166407
1711795440456303600,10.4553037109375,-1.0360755708634852,0.9970973131716251,2.1214782133452594
1711795440466279400,10.465279541015626,-1.1101514454215764,0.9390214832346886,2.20031574934721
1711795440476255500,10.47525537109375,-1.1807312945574522,1.0017449928469955,2.323250931881368
1711795440486230500,10.48523046875,-1.0668126544326544,1.0682416643224657,2.4186054490506645
1711795440496206600,10.49520654296875,-1.008647465711832,1.0950290604177861,2.4804414352387187
1711795440506182400,10.505182373046875,-0.7474883460968732,1.1652056625150145,2.464728317800164
1711795440516158500,10.515158447265625,-0.4633411496043205,1.1870428157918154,2.422116087520122
1711795440526134500,10.525134521484375,-0.2540449036955833,1.1383200667422264,2.4113696525782347
1711795440536109600,10.535109619140625,-0.0893365720540285,1.0984849730253219,2.3209904396034777
1711795440546085600,10.545085693359376,0.06621990036070347,1.0623865085534752,2.1857529709875583
1711795440556061400,10.5550615234375,0.012573650369048117,1.0216586307153106,2.1201326439552006
1711795440566037500,10.56503759765625,-0.26170097140669824,1.0810346565306186,2.0611955940790474
1711795440576013600,10.575013671875,-0.5144897375613451,1.1738263374745845,1.963116181990504
1711795440585988600,10.584988525390624,-0.6128162562787532,1.2548333264701068,1.8690752316378056
1711795440595964400,10.59496435546875,-0.6284615691781044,1.2578595424234866,1.821046821527928
1711795440605940500,10.6049404296875,-0.6642945145815611,1.2621667380981147,1.820540479440987
1711795440615916500,10.61491650390625,-0.6690326490193605,1.2755769854217767,1.729483659465611
1711795440625891300,10.624891357421875,-0.5251239443004131,1.3114129995651542,1.66482077928856
1711795440635867600,10.63486767578125,-0.4483259513020515,1.3421221722140908,1.546296837325394
1711795440645843500,10.644843505859376,-0.4046598280549049,1.326923726299405,1.3351542328976094
1711795440655819500,10.654819580078126,-0.41795536295771596,1.361325762116909,1.1692804376732557
1711795440665795600,10.664795654296874,-0.4808434885472059,1.4207155241966247,1.1312381456572562
1711795440675770600,10.6747705078125,-1.059244849526882,1.4115440834864974,1.1464378336809575
1711795440685746400,10.684746337890624,-1.366502872493863,1.5696904262639582,1.2301393224574624
1711795440695722500,10.694722412109375,-0.5078454772412777,1.5323707494340837,1.2492727697335182
1711795440705698600,10.704698486328125,-0.2468389178395271,1.5793424900978803,0.9379976200796664
1711795440715674400,10.71467431640625,0.14259762212038038,1.7371531711801886,0.9091269879695028
1711795440725649700,10.724649658203125,0.19422960968017577,1.69398476832211,0.5775475936945528
1711795440735625500,10.73462548828125,0.14757891766428946,1.6857528004191815,0.483711737459898
1711795440745601500,10.7446015625,0.031012393379211425,1.7184129610054193,0.4037267849884927
1711795440755577600,10.75457763671875,-0.14071136998236178,1.7613310423642397,0.3602499737683683
1711795440765552600,10.764552734375,-0.07947568777501583,1.7239768787428735,0.2633728501416743
1711795440775528400,10.774528564453124,-0.038108489120006556,1.7193594480752943,0.07908000298831612
1711795440785504500,10.78450439453125,0.06315700565874577,1.7218997802078724,-0.06240954829230904
1711795440795480600,10.79448046875,0.0025847557961940766,1.6112829581074415,-0.2204070571836084
1711795440805456400,10.804456298828125,0.061093058866262435,1.573062240784615,-0.2801361707529053
1711795440815431700,10.814431640625,0.22863865976035594,1.6063265047438442,-0.19997253724634645
1711795440825407500,10.824407470703125,0.5626338830053806,1.5475938913986087,-0.22216193802691994
1711795440835383300,10.83438330078125,0.8883096061944961,1.4540226043842732,-0.21437216093353925
1711795440845359600,10.844359619140626,1.0681465333849192,1.31410223864913,-0.21887447732146828
1711795440855335400,10.85433544921875,0.5900391918033361,1.3257188805542885,-0.28063199144583195
1711795440865310500,10.864310546875,0.29621231281757354,1.2865697963401674,-0.40346364054027944
1711795440875286500,10.87428662109375,-0.07994096719920635,1.2006748891726136,-0.5612986158136278
1711795440885262600,10.8842626953125,-0.3400321653217077,1.0535169733993708,-0.7140661881621927
1711795440895238400,10.89423828125,-0.36479660422205923,0.879318490487337,-0.7658779162030667
1711795440905213700,10.904213623046875,-0.2721013693898916,0.66376946779415,-0.8401775895796716
1711795440915189500,10.914189453125,0.07157821252346039,0.4855278469711542,-0.920450272951275
1711795440925165300,10.924165283203125,0.3682540511995554,0.3923771234564483,-0.9247583454087376
1711795440935141600,10.9341416015625,0.44663376043140884,0.5196320688858628,-0.933968949085474
1711795440945117400,10.944117431640626,0.41899756548702716,0.7457740895248949,-0.8424425388369708
1711795440955092500,10.954092529296876,0.2590712074249983,0.858541513787955,-0.7457693402845412
1711795440965068500,10.964068603515624,0.16265373719930648,0.8608407306410372,-0.7676714485563337
1711795440975044600,10.974044677734375,0.21131635355949402,0.7840192106366157,-0.8536051533643155
1711795440985020400,10.9840205078125,0.3225865250021219,0.6915300197705626,-0.97336302103661
1711795440994996700,10.993996826171875,0.4706476732254028,0.5785539211928844,-1.1042416368559003
1711795441004971800,11.0039716796875,0.5171528192907572,0.5305107519052923,-1.1811477664038539
1711795441014947600,11.013947509765625,0.35850948677659034,0.5550412359192967,-1.194826309274882
1711795441024924000,11.023923828125,-0.07215513562858104,0.5831072005830705,-1.2076932435020804
1711795441034899700,11.033899658203126,-0.5018950444042682,0.5221472665771841,-1.3387678933501244
1711795441044874800,11.043874755859376,-0.7070125433236361,0.3765457864657044,-1.4739919179625809
1711795441054850800,11.053850830078124,-0.7326157711356878,0.2179248119138181,-1.4734278543390333
1711795441064826600,11.06382666015625,-0.5459253247886896,0.1272339026413858,-1.5390622098967432
1711795441074802700,11.073802734375,-0.45183016003072257,0.03677402564585209,-1.6242334789648651
1711795441084778800,11.08377880859375,-0.34924656839072704,0.05170826766639947,-1.6357770556338131
1711795441094753800,11.09375390625,-0.3751221834033727,0.1655418598562479,-1.5359855789303778
1711795441104729600,11.1037294921875,-0.5754933645784854,0.18174992120489478,-1.4025243262067437
1711795441114706000,11.113705810546875,-0.44417818397283554,0.15556363280788063,-1.3466302972882984
1711795441124681700,11.123681640625,0.47921559508442874,0.10986951086446642,-1.3064980472557246
1711795441134656800,11.13365673828125,0.06072013390064239,0.0497149018920958,-1.4797482895322143
1711795441144632800,11.1436328125,-0.2781640304297209,0.1029179381608963,-1.304141108866036
1711795441154608600,11.153608642578124,-0.24076398184001443,-0.09026420829296111,-1.2897940190836787
1711795441164584700,11.163584716796874,-0.02555237440764904,-0.3294892901279032,-1.3847878862470389
1711795441174560800,11.173560791015625,0.30393618506789205,-0.44187282963991165,-1.2947770681932569
1711795441184535800,11.183535888671875,0.5056611189395189,-0.5349177546925843,-1.20310591571182
1711795441194511600,11.19351171875,0.5092471607327461,-0.6336410176426172,-1.0943421741321682
1711795441204487700,11.20348779296875,0.3252063521116972,-0.5909403053615242,-0.8981322042897343
1711795441214463700,11.213463623046875,0.217185537853837,-0.5974326630555092,-0.9123502608649432
1711795441224438800,11.223438720703125,0.105139705863595,-0.6874760682046414,-0.9349544529914855
1711795441234414800,11.233414794921876,0.04074176023304462,-0.7201736381918191,-0.9537227202169597
1711795441244390700,11.243390625,-0.015577508360147475,-0.6625598728086799,-1.0466848623570053
1711795441254366700,11.25336669921875,0.019672084197402,-0.634928134843707,-1.1028800661791116
1711795441264342800,11.2633427734375,-0.02285480588674545,-0.582363615674153,-1.036863214109838
1711795441274317800,11.27331787109375,-0.13862404231429099,-0.5043946061350405,-0.97824209831506
1711795441284293600,11.283293701171875,-0.16503274129033088,-0.43381716815195975,-0.9377369233168661
1711795441294269700,11.293269775390625,-0.1670107633650303,-0.4396644328754395,-0.9497912259869277
1711795441304245800,11.303245849609375,-0.2793395039498806,-0.4820613399043679,-0.9747147279065101
1711795441314221600,11.3132216796875,-0.3350578840404749,-0.5563331023607403,-0.9370920495420694
1711795441324196900,11.32319677734375,-0.2758317880898714,-0.6406067650020122,-0.8688481690730899
1711795441334172700,11.333172607421876,-0.06423194141387939,-0.682255922403559,-0.7439762463226914
1711795441344148700,11.343148681640624,0.2268669739127159,-0.6530981439150869,-0.5805730789955705
1711795441354124800,11.353124755859374,0.4980664260268211,-0.6798717306807637,-0.5130752311209217
1711795441364099800,11.363099853515624,0.6733645407438278,-0.7521184170503169,-0.5765255206378177
1711795441374075600,11.37307568359375,0.706385935857892,-0.7392832662008703,-0.6577309913475066
1711795441384051700,11.3830517578125,0.5200339276850223,-0.7183551905930042,-0.661935384234786
1711795441394027800,11.39302783203125,0.2269230880141258,-0.7556848773602396,-0.7390111712612212
1711795441404003600,11.403003662109375,-0.1746609858572483,-0.8263996779873967,-0.6875833279713988
1711795441413979000,11.412978759765625,-0.3693038525134325,-0.8765018256314099,-0.6185643714766949
1711795441423954700,11.42295458984375,-0.19663608630001544,-0.8673822612389922,-0.6028162557899952
1711795441433930800,11.4329306640625,-0.005230301868915557,-0.7631651501130312,-0.5952183480069041
1711795441443906800,11.44290673828125,0.050776247513294216,-0.6496347055882216,-0.63576648536399
1711795441453881900,11.4528818359375,0.03850070330798626,-0.6182018217746168,-0.7947318894393741
1711795441463857700,11.462857666015625,-0.2388409048229456,-0.535340802410245,-1.0617132854670286
1711795441473833700,11.472833740234375,-0.7088900276333093,-0.4657542751606554,-1.008121688272059
1711795441483809800,11.482809814453125,-1.0534925696104764,-0.5874895803857595,-0.8020785258751362
1711795441493785600,11.49278564453125,-1.2598615298956632,-0.6323476898964494,-0.5926622703159228
1711795441503761000,11.502760986328125,-1.2498469163596628,-0.6608522651731967,-0.5175405034340917
1711795441513736700,11.51273681640625,-0.8443985682755708,-0.577305090175569,-0.5585489517793059
1711795441523712500,11.52271240234375,-0.36342882300019264,-0.42155499488487835,-0.6056030369643122
1711795441533688800,11.532688720703124,-0.08410919279456137,-0.2558133746728301,-0.6466874000899493
1711795441543664600,11.54266455078125,-0.11994272271990776,-0.17222433329485357,-0.5123748277666047
1711795441553639700,11.5526396484375,-0.4626952529162168,-0.09208331347890197,-0.3766509273406118
1711795441563615700,11.56261572265625,-0.844405582538247,-0.054514484193548554,-0.2630109032277949
1711795441573591800,11.572591796875,-1.172559094017744,0.06393529655486345,-0.17774432055903597
1711795441583567600,11.582567626953125,-1.3288380354881286,0.04500160963460803,-0.11458676691101863
1711795441593543000,11.59254296875,-1.1786737775057554,-0.01827675738148391,-0.14325310862073673
1711795441603518700,11.602518798828125,-0.875856951856613,-0.0633908874798566,-0.14025789059381932
1711795441613494500,11.61249462890625,-0.47338615827858443,-0.03549874501302838,-0.013777875059656799
1711795441623470800,11.622470947265626,-0.3242874837011099,0.03786342831775546,0.09374640611922368
1711795441633445600,11.632445556640626,-0.3186141142398119,0.06959792542643845,0.2174904938834719
1711795441643421700,11.642421630859374,-0.3697048345297575,0.15140680538937448,0.24720705703217535
1711795441653397800,11.652397705078124,-0.3568213875591755,0.1820829525515437,0.31812103349324317
1711795441663373800,11.662373779296875,-0.28669629645347594,0.17120222370550037,0.4640971556033939
1711795441673349600,11.672349609375,-0.17320435730814931,0.15157587834596634,0.5381546907871961
1711795441683325000,11.682324951171875,-0.05184183091819286,0.09847308758124708,0.4914268053492531
1711795441693300700,11.69230078125,0.09177519737780093,0.032700930988043546,0.38774098808839913
1711795441703276500,11.702276611328125,0.27192951995432374,0.03600917875319719,0.33164299756307153
1711795441713252900,11.7122529296875,0.3798743463665247,0.0562450343132019,0.28816856096312404
1711795441723227600,11.7222275390625,0.36533202627301214,0.017597177619487047,0.27157962880441916
1711795441733203700,11.73220361328125,0.3626584231495857,0.07012611401900648,0.3409854109259322
1711795441743179800,11.7421796875,0.46163902186155314,0.1933332453623414,0.37177802407462146
1711795441753155600,11.752155517578124,0.4768360064715147,0.23632278452217578,0.41192346238233146
1711795441763131600,11.762131591796875,0.45703415841460227,0.18466537026017904,0.2847797222424298
1711795441773106700,11.772106689453125,0.504137270373106,0.14912322449684143,0.1690084399882704
1711795441783082800,11.782082763671875,0.43652386982738967,0.18957462348118423,0.25081560291815547
1711795441793058600,11.79205859375,0.25760756461322304,0.333960005801171,0.29064044923568144
1711795441803035000,11.802034912109375,-0.036705636584758755,0.4605829369373619,0.35458931765817103
1711795441813009700,11.812009765625,-0.18962942240834235,0.5145866220645606,0.48985955603253095
1711795441822985700,11.82198583984375,-0.08797054439783096,0.5852797223165631,0.6226815244719386
1711795441832961800,11.8319619140625,0.11156535499691962,0.5876004203490912,0.7108572360530495
1711795441842937600,11.8419375,0.2998860328942537,0.5026924783922732,0.6832090584099292
1711795441852913700,11.85191357421875,0.44536184079945085,0.47142581799104805,0.5608791848251595
1711795441862888700,11.861888671875,0.49339434256255627,0.4620052248254418,0.5691658785900101
1711795441872864800,11.87186474609375,0.5203700277715921,0.44136692594438787,0.5903811371088028
1711795441882840600,11.881840576171875,0.5090075067579746,0.31360593068897724,0.6102364323860034
1711795441892817000,11.89181689453125,0.35412498808205123,0.20807444902881977,0.5928819044159725
1711795441902791700,11.901791748046875,0.18295944312512874,0.13459829392954706,0.5419529505589976
1711795441912767700,11.911767822265626,0.03161094379425049,0.07089680613055825,0.6077703345334157
1711795441922743800,11.921743896484376,0.005502689069509506,0.06489595828056335,0.7094216502919792
1711795441932719600,11.9317197265625,0.06085340489149093,0.03653144906163215,0.7007893579598515
1711795441942695700,11.94169580078125,0.08157412135899067,-0.016329495771229267,0.6071484397754073
1711795441952670700,11.951670654296874,0.14223521854877472,-0.07629062799811363,0.4975775465313345
1711795441962646800,11.961646728515625,0.225568750795722,-0.09840469852015375,0.4703546816281974
1711795441972622600,11.97162255859375,0.26269290505349635,-0.043444443320482966,0.5139021834643558
1711795441982598700,11.9815986328125,0.18931845676302908,-0.003629588674008846,0.6060874594803899
1711795441992573200,11.9915732421875,0.1511936010301113,-0.03650806818604469,0.6671094258718192
1711795442002549200,12.00154931640625,0.12197159819900989,-0.0367417308114469,0.7055148521117866
1711795442012525300,12.011525390625,-0.04482464563250541,-0.02358808859735727,0.6973228508930653
1711795442022501000,12.021501220703126,-0.22374504249989985,-0.05225362658947706,0.5776033059371635
1711795442032477200,12.031477294921874,-0.3559516189873218,-0.09055208532363176,0.40806046681124714
1711795442042452200,12.0414521484375,-0.45815351783335206,-0.04127586710974574,0.27751035229396076
1711795442052428300,12.05142822265625,-0.5294236873209476,0.03769523214399814,0.24393077530786395
1711795442062404000,12.061404052734375,-0.5135591787129641,0.06496186312362551,0.28104985153172163
1711795442072380400,12.07138037109375,-0.42079146316647525,0.08188844800516963,0.3498561516564339
1711795442082355200,12.081355224609375,-0.2722375629901886,0.04891030751094222,0.4234116556022316
1711795442092331300,12.091331298828125,-0.15793138485252856,-0.0312552622243762,0.42841655121743677
1711795442102307300,12.101307373046875,0.012365560576319694,-0.17454188952222466,0.3762291947972029
1711795442112283100,12.111283203125,0.1764431930989027,-0.24236060338169335,0.29987145637962964
1711795442122259200,12.12125927734375,0.30602760438919063,-0.20577201730534433,0.2430238530633971
1711795442132234200,12.131234130859376,0.2981868277609348,-0.18082666888013482,0.2324824391743168
1711795442142210300,12.141210205078124,0.2095703866750002,-0.1861037325002253,0.20260336067397147
1711795442152186000,12.15118603515625,0.13554887265264987,-0.15830825534090398,0.2513884343700483
1711795442162162200,12.161162109375,0.014443535894155502,-0.10056099977120757,0.3764761918282136
1711795442172137200,12.17113720703125,-0.09705343004167079,-0.1291518650919199,0.4454909836044535
1711795442182113300,12.18111328125,-0.08733341553807258,-0.18504764757603406,0.4846162120189517
1711795442192089300,12.19108935546875,-0.04586567911803722,-0.22183321752920745,0.5171745196659118
1711795442202065200,12.201065185546875,0.007801029139757156,-0.3115384767651558,0.5003805481880903
1711795442212041200,12.211041259765626,0.10144260491132735,-0.3717155898302793,0.4273102339433506
1711795442222016300,12.221016357421876,0.26745617393255233,-0.40994039880633354,0.3465007402813062
1711795442231992300,12.230992431640624,0.3925841903358698,-0.4474914001740515,0.3027778818782419
1711795442241968000,12.240968017578124,0.5006523508667946,-0.5112509017705917,0.2885048985117115
1711795442251944200,12.250944091796875,0.5754536170899868,-0.5498880909398198,0.3238251268863678
1711795442261919200,12.260919189453125,0.564300354912877,-0.5638108178302645,0.42267106636799867
1711795442271895300,12.270895263671875,0.4580827906847,-0.5873046522729098,0.4875713720301166
1711795442281871400,12.280871337890625,0.2788432448655367,-0.6533863132067025,0.45420152880456294
1711795442291847200,12.29084716796875,0.14674655849337576,-0.6827430483333766,0.36512758974209425
1711795442301823200,12.3008232421875,0.0776075558155775,-0.6400320338539779,0.28232599068107084
1711795442311798300,12.31079833984375,0.01455167244374752,-0.6395432274237275,0.22581538250055164
1711795442321774300,12.3207744140625,0.02258767938315868,-0.629999884661287,0.32790392063260076
1711795442331750100,12.330750244140624,-0.018096213182806967,-0.7602901061333716,0.3716633847190067
1711795442341726200,12.340726318359375,0.008371522504091263,-0.7877624888181686,0.40098417174946516
1711795442351701200,12.350701171875,0.11838146475255489,-0.7636819405287504,0.5017420823322609
1711795442361677000,12.360677001953125,0.17550503546595572,-0.8570169345691799,0.4752279502203688
1711795442371653400,12.3706533203125,0.24477204843759534,-0.9838156606636941,0.39363337059523906
1711795442381629200,12.380629150390625,0.3220978647023439,-1.0554800901658832,0.2878341779096052
1711795442391604200,12.390604248046875,0.320857509252429,-1.109472669377178,0.22804810998868197
