time,seconds_elapsed,z,y,x
1711795430071476200,0.070476318359375,-9.69368529959917,-1.4804581913672388,0.10530278747081756
1711795430081452300,0.080452392578125,-9.695090490221977,-1.469166251371801,0.13098430468346922
1711795430091428400,0.090428466796875,-9.696457102400064,-1.457601193523407,0.1565291351054795
1711795430101404400,0.100404296875,-9.697421563518047,-1.4480674953721462,0.18301738385744393
1711795430111380200,0.110380126953125,-9.697718500638008,-1.442560714649409,0.2089484736506827
1711795430121356300,0.120356201171875,-9.697208797550202,-1.4420726388715206,0.23441664037359877
1711795430131332400,0.130332275390625,-9.696276485136151,-1.4444243165642021,0.2573899398071691
1711795430141307400,0.140307373046875,-9.695187520855665,-1.4484674544751643,0.2750815725107677
1711795430151283200,0.150283203125,-9.694153501632808,-1.4530154731683431,0.2872661870296113
1711795430161259500,0.160259521484375,-9.69357365591824,-1.4559735923215746,0.29180653387298805
1711795430171235300,0.1702353515625,-9.693696405515075,-1.4562455411307513,0.2863265680919401
1711795430181211100,0.180211181640625,-9.694247025135159,-1.4548179925456641,0.2747129583940841
1711795430191187500,0.1901875,-9.695040221339463,-1.4521093181088567,0.2606868076617829
1711795430201162200,0.200162353515625,-9.695892454254627,-1.4488707745790481,0.24662693732297047
1711795430211138300,0.21013818359375,-9.696737088385223,-1.445102800347656,0.2352701519303955
1711795430221114400,0.2201142578125,-9.69754606668055,-1.4409427580587566,0.2273166539089754
1711795430231090400,0.23009033203125,-9.698395376986264,-1.4360530863210559,0.22195666124578564
1711795430241066500,0.24006640625,-9.699299632349609,-1.4307400746047496,0.21667904963642357
1711795430251042300,0.250042236328125,-9.700237789982557,-1.4254077736660837,0.20972926703114061
1711795430261018400,0.260018310546875,-9.700950906687975,-1.4215999058157205,0.20246285622473806
1711795430270993200,0.2699931640625,-9.701338444700836,-1.4198163833998143,0.1963030549533665
1711795430280969500,0.279969482421875,-9.701374685057997,-1.419679020755738,0.19550293581793082
1711795430290945300,0.2899453125,-9.70105319801867,-1.4211417867846785,0.2007777344156988
1711795430300921300,0.29992138671875,-9.700454063081741,-1.4239901619531214,0.20933769216397777
1711795430310897400,0.3098974609375,-9.699717565500736,-1.42773680113554,0.21779502978799864
1711795430320873200,0.319873291015625,-9.699089788991213,-1.431024444504082,0.2240873348652385
1711795430330849500,0.329849609375,-9.698714525938033,-1.4331376372657716,0.22680987343061715
1711795430340824300,0.33982421875,-9.698722124722599,-1.4331108953893184,0.2266491847098805
1711795430350800400,0.34980029296875,-9.699162854227422,-1.4304460600942372,0.2246128017777577
1711795430360776400,0.3597763671875,-9.69995254330039,-1.425327840297669,0.22303408121895044
1711795430370752300,0.369752197265625,-9.700890116411447,-1.4190335624590515,0.2224012997407466
1711795430380728300,0.379728271484375,-9.70168681974709,-1.4135301427371798,0.2226916244568303
1711795430390704400,0.389704345703125,-9.702117612379789,-1.4104163946308195,0.22365751034691927
1711795430400679400,0.399679443359375,-9.70211468977034,-1.4102905762940645,0.22457396760471163
1711795430410655200,0.4096552734375,-9.701998369914293,-1.4108783130541442,0.2259140023031272
1711795430420631300,0.41963134765625,-9.701844640657304,-1.4114737947292626,0.22877156542502342
1711795430430607400,0.429607421875,-9.701732996976375,-1.4118546107403933,0.23115325466347858
1711795430440583200,0.439583251953125,-9.701712538710236,-1.411694744003564,0.23296823166357353
1711795430450559500,0.4495595703125,-9.701958037903905,-1.4099012847155332,0.23361730668945235
1711795430460535300,0.459535400390625,-9.702564771625399,-1.40566437779814,0.23395278572151437
1711795430470510300,0.46951025390625,-9.703427525934577,-1.3992970347233116,0.23632519567497073
1711795430480486400,0.479486328125,-9.704178636562824,-1.3937737412571907,0.23810411498099565
1711795430490462200,0.489462158203125,-9.705073539575935,-1.3886448539361358,0.23151156658185645
1711795430500438500,0.4994384765625,-9.706735919830203,-1.379581403645128,0.21543926044208928
1711795430510414300,0.509414306640625,-9.708881115165353,-1.366650464271009,0.20069385552452876
1711795430520390400,0.519390380859375,-9.71118003975749,-1.352101422175765,0.18757177749248222
1711795430530366500,0.529366455078125,-9.71302654440701,-1.3403966635957358,0.17558714252514765
1711795430540341500,0.539341552734375,-9.71407050050199,-1.3339096396639942,0.16705199042456223
1711795430550317300,0.5493173828125,-9.714417706504463,-1.331822165865451,0.16346227710321545
1711795430560293400,0.55929345703125,-9.71422130714953,-1.3334737324647605,0.16167265374008566
1711795430570269400,0.56926953125,-9.71378876095116,-1.3368665897734462,0.1596325810135342
1711795430580245200,0.579245361328125,-9.713471365565061,-1.3392960088774561,0.15857039514211937
1711795430590221300,0.58922119140625,-9.713563135501742,-1.338689129025489,0.15806608061548322
1711795430600196400,0.5991962890625,-9.714201433405279,-1.334213152655214,0.15670018082344903
1711795430610172200,0.609172119140625,-9.715317285692691,-1.326607353826612,0.15201516481237484
1711795430620148500,0.6191484375,-9.716572254189849,-1.3183395839579402,0.1435015486901626
1711795430630124300,0.629124267578125,-9.717580554449558,-1.311981593233347,0.13312159070679916
1711795430640100400,0.639100341796875,-9.718127666938305,-1.308689858211577,0.12536030905554071
1711795430650076400,0.649076416015625,-9.718202485740184,-1.3083933594830333,0.12259322809553705
1711795430660052200,0.65905224609375,-9.717989719772339,-1.3096265545397996,0.1262391103172209
1711795430670027300,0.66902734375,-9.717634914985299,-1.3114100769557058,0.13477725809249094
1711795430680003300,0.67900341796875,-9.717384155094622,-1.3120792083889246,0.14586790336216798
1711795430689979400,0.6889794921875,-9.7174648191154,-1.3100975330524145,0.15781800587223843
1711795430699955200,0.698955078125,-9.717809102508426,-1.306415045147389,0.16688215028299017
1711795430709931300,0.70893115234375,-9.718362644737958,-1.301966102914512,0.1693837761066854
1711795430719907300,0.7189072265625,-9.719035429432987,-1.2974101931758224,0.16572443161522968
1711795430729882400,0.72888232421875,-9.719713474825024,-1.2931428911201654,0.1591761059503071
1711795430739858400,0.7388583984375,-9.720368723863363,-1.288916651727259,0.15333035733047873
1711795430749834200,0.748834228515625,-9.721052029952407,-1.2842033594697713,0.14950576667417773
1711795430759810600,0.758810546875,-9.721672792199254,-1.279724168229103,0.14753670422406867
1711795430769786400,0.768786376953125,-9.722098324134945,-1.2767495363324879,0.14524921434139831
1711795430779762200,0.77876220703125,-9.722288293749093,-1.2756060653857886,0.14257004912686533
1711795430789738500,0.788738525390625,-9.722394676733016,-1.2749790195286272,0.14092033655792474
1711795430799713300,0.79871337890625,-9.722677585327625,-1.272800360315293,0.14108947344659828
1711795430809689300,0.808689453125,-9.723380180639028,-1.2674227589301765,0.14106448513581415
1711795430819665400,0.81866552734375,-9.724669635927677,-1.2576581746324895,0.1395555601438973
1711795430829641200,0.82864111328125,-9.726644150871039,-1.242692660690844,0.13599834258635526
1711795430839617300,0.8386171875,-9.72919383535385,-1.223228227894753,0.12994560015234163
1711795430849593300,0.84859326171875,-9.73201298442781,-1.2014854749031365,0.12138822708679363
1711795430859568400,0.858568359375,-9.734738609999418,-1.1801792866978793,0.11148500150339677
1711795430869544200,0.868544189453125,-9.737107092696428,-1.1613987445127218,0.1014307318104431
1711795430879520500,0.8785205078125,-9.738860073843599,-1.1474068979088217,0.09188852155916392
1711795430889496300,0.888496337890625,-9.739826288527249,-1.139892357560247,0.08253439949220046
1711795430899472100,0.89847216796875,-9.740061850848793,-1.1385007570713759,0.0734379739467753
1711795430909448400,0.908448486328125,-9.739883571672438,-1.1404897389315067,0.06586254742355085
1711795430919424300,0.91842431640625,-9.739654439091682,-1.1428049570713192,0.05930571422518696
1711795430929399300,0.9283994140625,-9.739705292496085,-1.1426900985199957,0.052768987666512834
1711795430939375400,0.938375244140625,-9.740287476298212,-1.1380560089785605,0.04481511975233443
1711795430949351400,0.948351318359375,-9.741488084259629,-1.1281053275242447,0.03423038731133565
1711795430959327200,0.9583271484375,-9.743008425694704,-1.1152440923854707,0.020160858661611564
1711795430969303300,0.96830322265625,-9.744552148005365,-1.1018478735871613,0.004515805200931209
1711795430979280000,0.97827978515625,-9.74588544243574,-1.089965201156959,-0.008815920112101593
1711795430989255000,0.9882548828125,-9.746900172436236,-1.0807670185703784,-0.016415539220022035
1711795430999231000,0.99823095703125,-9.747522103726864,-1.0751319352928548,-0.01697774310497916
1711795431009206800,1.008206787109375,-9.747681093680859,-1.0737511484589428,-0.012308097051328513
1711795431019182800,1.018182861328125,-9.747388248214126,-1.0764654489189385,-0.005640587715592118
1711795431029159000,1.028158935546875,-9.746731245610118,-1.082411424776539,-0.000023351449259268974
1711795431039135000,1.038135009765625,-9.745844525903463,-1.0903639912161975,0.0025132480482410752
1711795431049110800,1.04811083984375,-9.74497241924405,-1.0981298759773372,0.003467306503218424
1711795431059085800,1.0580859375,-9.744425306755303,-1.1029702286805958,0.004374069488303212
1711795431069062000,1.068061767578125,-9.74445102571845,-1.1027361276637762,0.00521393068942707
1711795431079038000,1.078037841796875,-9.745279293236136,-1.0953919023808092,0.006102583770730416
1711795431089013800,1.088013671875,-9.746952779406309,-1.0803944589309393,0.006964468717761337
1711795431098990000,1.097989990234375,-9.749127200835943,-1.060598236897215,0.005629571418766863
1711795431108966000,1.1079658203125,-9.751316235312819,-1.0402896814271807,0.003374714868041337
1711795431118941000,1.11794091796875,-9.753096688988805,-1.0234662646591663,0.0028549772975209635
1711795431128917000,1.1279169921875,-9.754180977094173,-1.0130751459609717,0.003804597895631741
1711795431138892800,1.137892822265625,-9.754474407082796,-1.0102351732946933,0.006465355522627942
1711795431148868900,1.147868896484375,-9.754159934306145,-1.0132068095166236,0.012838433076854562
1711795431158845000,1.157844970703125,-9.75353274231851,-1.0190423107370734,0.02326906065988587
1711795431168820700,1.16782080078125,-9.752940037122368,-1.0243364716224372,0.03575442767399363
1711795431178796800,1.177796875,-9.75261855008304,-1.0269564448624848,0.04668732509869151
1711795431188771800,1.187771728515625,-9.75269395340681,-1.0259108082670718,0.053386407178803344
1711795431198748000,1.197747802734375,-9.753128837692737,-1.0216592883024365,0.05542189962835982
1711795431208723700,1.2077236328125,-9.753864750751852,-1.0146536473240704,0.05459941796406637
1711795431218700000,1.217699951171875,-9.754902277106046,-1.0046901063881815,0.05355046603356022
1711795431228675800,1.22767578125,-9.756264797630905,-0.9913685602612793,0.053532286489475514
1711795431238652000,1.23765185546875,-9.757906135097146,-0.9751268158387392,0.05276420646011829
1711795431248627000,1.247626953125,-9.75968717329502,-0.9573360153432935,0.04891870087995193
1711795431258602800,1.257602783203125,-9.761331433370708,-0.9407401237208396,0.04240895365974866
1711795431268578800,1.267578857421875,-9.762508075934647,-0.9287340441066771,0.035751518764276985
1711795431278555000,1.277554931640625,-9.763055772945284,-0.9231318401854485,0.030810493581963236
1711795431288531000,1.287531005859375,-9.763018948066234,-0.9235575182516127,0.029822231463284696
1711795431298507000,1.297507080078125,-9.762532625854014,-0.9286351868420839,0.031220827948523218
1711795431308482800,1.30748291015625,-9.761801388970017,-0.9362783950716257,0.03161936456272378
1711795431318457900,1.317457763671875,-9.761063137823342,-0.9440399689838289,0.028701335391285828
1711795431328434000,1.327433837890625,-9.76050784202814,-0.9499545267898589,0.021381191953516097
1711795431338410000,1.337409912109375,-9.76024772978723,-0.9528049477849155,0.010675388132827356
1711795431348385800,1.3473857421875,-9.760299752235412,-0.9523249822482466,-0.0028960236918399457
1711795431358361900,1.35736181640625,-9.760619485709071,-0.9488653433136641,-0.018735229180619352
1711795431368338000,1.367337890625,-9.760962600058317,-0.9448259317297488,-0.03605466642931569
1711795431378312700,1.377312744140625,-9.761042679557203,-0.9432092903133481,-0.052803259828872975
1711795431388289000,1.3872890625,-9.760685536682605,-0.9461827531661837,-0.06434152556846384
1711795431398264800,1.397264892578125,-9.759843240639567,-0.9543735853411257,-0.07082039359321352
1711795431408241000,1.407240966796875,-9.75866075285673,-0.9661773473162203,-0.07365062118361237
1711795431418217000,1.417217041015625,-9.757386495137213,-0.9788882141988724,-0.07461649337396957
1711795431428192800,1.42719287109375,-9.756308636772632,-0.9895005013670771,-0.07562263364263344
1711795431438167800,1.437167724609375,-9.755620654508471,-0.9961060371119529,-0.07758713408205657
1711795431448144000,1.447143798828125,-9.755326055476068,-0.9987368970721959,-0.08073091200049966
1711795431458120000,1.457119873046875,-9.755220841535925,-0.9994299208376556,-0.08476580267292447
1711795431468095700,1.467095703125,-9.755150698909162,-0.9996729358132928,-0.08984861322939396
1711795431478071800,1.47707177734375,-9.754939686506987,-1.0013274250220507,-0.09422462722337804
1711795431488047900,1.4870478515625,-9.754517661702632,-1.005307872960344,-0.09549974345942028
1711795431498024000,1.49702392578125,-9.75386942692697,-1.0118489651668816,-0.09258908931026234
1711795431507999000,1.5069990234375,-9.75312416151762,-1.019705158559978,-0.08459979845625348
1711795431517974800,1.516974853515625,-9.752372466367483,-1.0277790132917464,-0.07272684370246715
1711795431527950800,1.526950927734375,-9.751766901689768,-1.034407126194611,-0.058529953212873076
1711795431537927000,1.536927001953125,-9.751275318780541,-1.0397188958019017,-0.04471178267544601
1711795431547902700,1.54690283203125,-9.750761524039506,-1.0449659296099096,-0.03295145798327867
1711795431557879000,1.556879150390625,-9.75008347864747,-1.051517981601879,-0.023762509015924294
1711795431567853800,1.566853759765625,-9.749133630576729,-1.0604275565054266,-0.01647892787901219
1711795431577830000,1.576829833984375,-9.747791568318009,-1.0727817919701337,-0.009340395506532513
1711795431587806000,1.586805908203125,-9.745903562614322,-1.089835656493157,-0.0021084990337905765
1711795431597782000,1.596781982421875,-9.743277305763959,-1.113066675281152,0.0033118162598737397
1711795431607757800,1.6067578125,-9.739840901574492,-1.1427264850076286,0.007503038282092893
1711795431617734000,1.61673388671875,-9.735805946969986,-1.176573444225639,0.011822589973150752
1711795431627709000,1.626708984375,-9.731629538068175,-1.2105506787598133,0.018401001390727468
1711795431637684700,1.636684814453125,-9.727869893273711,-1.2402923215508461,0.024613591153617016
1711795431647661000,1.6466611328125,-9.72500047531724,-1.2625598290689288,0.02629253210033057
1711795431657636900,1.656636962890625,-9.723131174314021,-1.2769501734711228,0.02231758688763948
1711795431667612700,1.66661279296875,-9.722114106225966,-1.2847998640581966,0.012886608183692442
1711795431677589000,1.676589111328125,-9.7216248614043,-1.288559654983133,0.0018698689712648047
1711795431687564800,1.686564697265625,-9.72140040499866,-1.2902442470692097,-0.005152130628502345
1711795431697539800,1.696539794921875,-9.721166011720895,-1.2920051192618907,-0.005842203243405674
1711795431707516000,1.706515869140625,-9.720720021519064,-1.2953722576074302,-0.00039678447558690093
1711795431717492000,1.716491943359375,-9.719786540061234,-1.3023096556551754,0.010881779158813878
1711795431727467800,1.7264677734375,-9.717830729818344,-1.316648562131077,0.024223950231925116
1711795431737443800,1.73644384765625,-9.71429378786385,-1.3421477450467645,0.03892433098095935
1711795431747420000,1.746419921875,-9.709114339399337,-1.3785564445115626,0.05540080660798121
1711795431757394700,1.756394775390625,-9.702910808584093,-1.4206538571372627,0.07519496454878244
1711795431767371000,1.76637109375,-9.696361240810155,-1.46319945192188,0.10002391548613086
1711795431777346800,1.776346923828125,-9.690063017448782,-1.5022671414628623,0.12750955037814565
1711795431787323000,1.786322998046875,-9.684280342394112,-1.5367401966899632,0.15337251597177237
1711795431797299000,1.796298828125,-9.679040103653072,-1.5672032856233418,0.17446042178384957
1711795431807274800,1.806274658203125,-9.674060561674832,-1.5959052101030944,0.18979886069111526
1711795431817249800,1.816249755859375,-9.668916769045591,-1.6255954149678349,0.19968831347748636
1711795431827225900,1.826225830078125,-9.663368487268686,-1.6575352984555065,0.20560274341935292
1711795431837202000,1.836201904296875,-9.65754372663796,-1.690755431012064,0.20876979261552914
1711795431847178000,1.846177978515625,-9.651793200287223,-1.7230368214137852,0.21076615406451746
1711795431857153800,1.85615380859375,-9.646713705065846,-1.751167668007314,0.21145831931345163
1711795431867129900,1.8661298828125,-9.642716744384169,-1.7730537749923765,0.21136980077978224
1711795431877105000,1.87610498046875,-9.640020929428934,-1.7878081304013729,0.2100577500668354
1711795431887081000,1.8860810546875,-9.638523384347558,-1.796304009937495,0.20625806552292777
1711795431897056800,1.896056884765625,-9.63822001748681,-1.7985773616969585,0.20055906843002885
1711795431907033000,1.906033203125,-9.63893021158278,-1.7951732523418962,0.19688032511835918
1711795431917009000,1.9160087890625,-9.640261752447485,-1.787883095333725,0.19801820657448843
1711795431926984700,1.925984619140625,-9.641695584642887,-1.7793955452345311,0.20456565545657648
1711795431936961000,1.9359609375,-9.642779288226366,-1.772231206563115,0.21538692746665328
1711795431946935800,1.945935791015625,-9.643816814580559,-1.7649762669987976,0.2281139052338898
1711795431956911900,1.955911865234375,-9.644666709408163,-1.7584557791888713,0.24210920417020096
1711795431966888000,1.965887939453125,-9.645519526845217,-1.7519583799935876,0.25491344842473046
1711795431976863700,1.97586376953125,-9.646834116575121,-1.743332005945593,0.26414483916116877
1711795431986839300,1.98583935546875,-9.648825582653284,-1.7312926085837184,0.270507980984915
1711795431996815000,1.995815185546875,-9.651458269244431,-1.716011745082587,0.27394001952651886
1711795432006790100,2.0057900390625,-9.654679569378494,-1.6976682791404425,0.2747119172144681
1711795432016766200,2.01576611328125,-9.658412326166033,-1.6763135025531053,0.2746458662409335
1711795432026742300,2.0257421875,-9.66263315873146,-1.6516104384511707,0.27584481196822597
1711795432036718000,2.035718017578125,-9.667093645271658,-1.6248545334726572,0.27845406288485974
1711795432046694400,2.0456943359375,-9.671385789507626,-1.5985339511714876,0.2817370848772116
1711795432056670200,2.055670166015625,-9.675227267366648,-1.5744712307997046,0.2853191628813743
1711795432066645200,2.065645263671875,-9.678518125605583,-1.5537288870222865,0.28739423385607077
1711795432076621300,2.075621337890625,-9.681119248014689,-1.5377007122851907,0.28598584662918
1711795432086597000,2.08559716796875,-9.683025373896957,-1.526709654932469,0.2802801275345497
1711795432096573200,2.0955732421875,-9.684382633724809,-1.5197833628006279,0.2708710056110285
1711795432106549200,2.10554931640625,-9.685433019560575,-1.515017025181651,0.25978711887570094
1711795432116525000,2.115525146484375,-9.686441319820284,-1.5102952573567627,0.2494976704536937
1711795432126500000,2.1255,-9.687741296502947,-1.5032690119817853,0.24132068414101376
1711795432136476200,2.13547607421875,-9.689589554718136,-1.4923141949862242,0.23501727314786985
1711795432146452200,2.1454521484375,-9.692153852248191,-1.476502585609257,0.2290758456012234
1711795432156428000,2.155427978515625,-9.695374567860364,-1.456273890442401,0.22218380279885605
1711795432166404400,2.165404296875,-9.698910925292969,-1.4337535772070287,0.21415665501933542
1711795432176380200,2.175380126953125,-9.702390584102272,-1.411234140754491,0.20596743027959016
1711795432186355200,2.185355224609375,-9.705577981966734,-1.3901101041831074,0.19932868638485668
1711795432196331300,2.195331298828125,-9.708302438494563,-1.3715918661959468,0.19490608416963368
1711795432206307000,2.20530712890625,-9.710437696957587,-1.3565855818524957,0.19354858687976373
1711795432216283400,2.215283447265625,-9.712046301198004,-1.3449457052022218,0.19408004514165222
1711795432226259200,2.22525927734375,-9.713292501866817,-1.3356431854583322,0.19593601173926142
1711795432236235300,2.2352353515625,-9.714282097426056,-1.3279768886141479,0.1989561632780358
1711795432246210000,2.2452099609375,-9.715252988284826,-1.3204301264964042,0.20177436250392347
1711795432256186400,2.255186279296875,-9.716500357997417,-1.3111582941517232,0.2021697732959874
1711795432266162200,2.265162109375,-9.718182027474045,-1.299169604063779,0.19868879931243136
1711795432276138200,2.27513818359375,-9.72017057094276,-1.2852712809622286,0.19168438217677175
1711795432286114300,2.2851142578125,-9.722304075840116,-1.2703341163322328,0.18285348026631398
1711795432296090000,2.295090087890625,-9.724400171336532,-1.2556345598503946,0.17264197418503463
1711795432306066200,2.305066162109375,-9.72634078401029,-1.241979105594009,0.1617667252317071
1711795432316041200,2.315041259765625,-9.728101363942027,-1.2293529943853616,0.1520672329263296
1711795432326017000,2.32501708984375,-9.729615275636315,-1.2182508778735994,0.14434360727118328
1711795432335993300,2.334993408203125,-9.730787826547026,-1.2094819535497576,0.1389613297109492
1711795432345969200,2.34496923828125,-9.731672208166122,-1.2026000850815326,0.13674366279463282
1711795432355945200,2.3549453125,-9.73236603564918,-1.1968747662372887,0.13758056114334613
1711795432365921300,2.36492138671875,-9.73290613387525,-1.1920562600396574,0.14114908554619177
1711795432375896300,2.374896240234375,-9.733175598466396,-1.1893567918226122,0.1452949531792663
1711795432385872100,2.3848720703125,-9.733179690119623,-1.1890643116820603,0.1473907107489649
1711795432395848200,2.39484814453125,-9.73302011564374,-1.1903959256120025,0.14717466597864404
1711795432405824300,2.40482421875,-9.73287047803998,-1.191912613785267,0.14478654699940233
1711795432415800300,2.41480029296875,-9.732889182740449,-1.1922383386082946,0.140772781313397
1711795432425776000,2.424776123046875,-9.733124160540104,-1.1908318328112364,0.13638618199331684
1711795432435751200,2.434751220703125,-9.733555537694691,-1.1878786090288311,0.13123665374303237
1711795432445727200,2.444727294921875,-9.73404302895069,-1.1845115437485276,0.12540749093182385
1711795432455703300,2.454703369140625,-9.73438029808104,-1.1822650799959897,0.12032886336012742
1711795432465679000,2.46467919921875,-9.734388481387496,-1.1825571948103606,0.11670633461456745
1711795432475655400,2.474655517578125,-9.733927878138422,-1.1866754437841474,0.11327259730622172
1711795432485631200,2.48463134765625,-9.733004918074608,-1.19456217844598,0.10962929976726882
1711795432495606300,2.494606201171875,-9.731704941391945,-1.2054541593383996,0.10575729890582151
1711795432505582300,2.504582275390625,-9.73003613139689,-1.2191987531829624,0.10165987352435477
1711795432515558100,2.51455810546875,-9.727996150001882,-1.235627836871147,0.09847065816214308
1711795432525534200,2.5245341796875,-9.725451726216077,-1.255538990521431,0.09798049089186825
1711795432535510300,2.53451025390625,-9.722399352908134,-1.2785124543517827,0.10363250703788361
1711795432545486300,2.544486328125,-9.718924954795837,-1.3035863975927233,0.11636884628850966
1711795432555461000,2.554461181640625,-9.715084645980596,-1.3301833126172422,0.13464920213287696
1711795432565437400,2.5644375,-9.710944477435946,-1.3577161933176218,0.15666101785684003
1711795432575413200,2.574413330078125,-9.70653425977826,-1.3861737876474856,0.17917106542652472
1711795432585389000,2.58438916015625,-9.70168506618142,-1.417221836861968,0.1979254867897369
1711795432595365400,2.594365478515625,-9.696255442348122,-1.4517612353235483,0.2130850437324494
1711795432605341200,2.604341064453125,-9.690297410726547,-1.4888393584825097,0.22777676396770402
1711795432615316200,2.614316162109375,-9.684032505112885,-1.5263177330054343,0.24546951091615482
1711795432625292300,2.624292236328125,-9.677996732079983,-1.560778951664269,0.2659608573408797
1711795432635268000,2.63426806640625,-9.672812607440353,-1.5890291868537663,0.28647907350622115
1711795432645244200,2.644244140625,-9.669106738659739,-1.6082001896612346,0.30406202167095614
1711795432655220200,2.65422021484375,-9.667160280767083,-1.6174609160900115,0.31656185788512226
1711795432665196300,2.6641962890625,-9.666882048347592,-1.6180828473806381,0.32183610849361866
1711795432675171000,2.674171142578125,-9.66762848280072,-1.6139279196582734,0.3202871254859492
1711795432685147400,2.6841474609375,-9.668625677144528,-1.6092868158541618,0.3134634900109842
1711795432695123200,2.694123291015625,-9.669331195065379,-1.6066786791823804,0.30496649623000993
1711795432705099000,2.70409912109375,-9.669521164679526,-1.6070916438974439,0.29664200947172936
1711795432715075300,2.714075439453125,-9.669245270347595,-1.6103000845499336,0.28811197193767873
1711795432725051100,2.724051025390625,-9.66858066895902,-1.6160665391221642,0.27795449759857727
1711795432735026200,2.734026123046875,-9.667662969592213,-1.6233018972031772,0.26752019734578203
1711795432745002200,2.744002197265625,-9.666471713981032,-1.6315056619249284,0.2605833472873084
1711795432754978300,2.753978271484375,-9.665048403179645,-1.6399322756171226,0.2604705345625989
1711795432764954400,2.763954345703125,-9.66343395372033,-1.6482659503288566,0.2676751504454762
1711795432774930200,2.77393017578125,-9.661674542832374,-1.656744586469233,0.2786120116592385
1711795432784906200,2.78390625,-9.659783614519238,-1.665789770451188,0.2900187919396907
1711795432794881000,2.793881103515625,-9.657848262542485,-1.6754915186457335,0.29846007347805426
1711795432804857300,2.803857421875,-9.655959087795019,-1.6856413028687238,0.3024067104782909
1711795432814833200,2.813833251953125,-9.654190909078716,-1.69581739057675,0.30197310483399775
1711795432824809200,2.823809326171875,-9.652509239602088,-1.7059231895275413,0.29879677635282276
1711795432834785300,2.833785400390625,-9.650959087550639,-1.715385137616843,0.2946604254667647
1711795432844761000,2.843760986328125,-9.649674308437108,-1.7234725824825465,0.28950558172054586
1711795432854736400,2.853736328125,-9.648708678275346,-1.7299417784966526,0.28304038602812215
1711795432864712200,2.863712158203125,-9.64825508928895,-1.7337676203951238,0.2749754817877896
1711795432874688300,2.873688232421875,-9.648527476489543,-1.7339811170153319,0.26382901467764747
1711795432884664300,2.883664306640625,-9.649630469295381,-1.7300525453947484,0.24887672554375603
1711795432894640000,2.89364013671875,-9.651523735696077,-1.7218683621563016,0.23160492568742483
1711795432904616200,2.9036162109375,-9.654097970098256,-1.7094145387746393,0.21604979355586693
1711795432914591200,2.91359130859375,-9.657102997133135,-1.6937318164743482,0.20498176197679713
1711795432924567300,2.9235673828125,-9.660330142486094,-1.675889870313555,0.19948349335407836
1711795432934543000,2.933543212890625,-9.663722707533836,-1.6561594800576567,0.19995439880145713
1711795432944519200,2.943519287109375,-9.6671649569422,-1.6354479698099196,0.2040054642905481
1711795432954495200,2.9534951171875,-9.670535894680024,-1.6148554097667336,0.20822339251283556
1711795432964471000,2.963470947265625,-9.673770638817548,-1.5950769425854086,0.21042504900926723
1711795432974446300,2.9734462890625,-9.676731242188811,-1.5769887665785849,0.21061954866806043
1711795432984422000,2.983421875,-9.679368020433188,-1.5607112932555376,0.2107066606959328
1711795432994398000,2.99339794921875,-9.68158452743888,-1.5466567566789686,0.21250538068097083
1711795433004373800,3.003373779296875,-9.683363227549195,-1.534824572326988,0.21718256044546141
1711795433014349800,3.013349853515625,-9.684649760228394,-1.5256547390520572,0.22432214826811103
1711795433024326000,3.023325927734375,-9.685541156110167,-1.5188564572140573,0.23185495492573827
1711795433034301000,3.033301025390625,-9.686175946882367,-1.5138846601508558,0.23776271766480056
1711795433044277000,3.043277099609375,-9.68674936285615,-1.5099502433113754,0.23942358181541784
1711795433054252800,3.053252685546875,-9.687465402171016,-1.5059620504580438,0.23552385269682852
1711795433064228900,3.063228759765625,-9.688468441733717,-1.5008428077481686,0.22678148758634922
1711795433074205000,3.073204833984375,-9.689781862419844,-1.4940844195291398,0.2149853243958205
1711795433084180700,3.0831806640625,-9.691321493077277,-1.4857801170423626,0.20280319409500808
1711795433094155800,3.09315576171875,-9.693150462070108,-1.4752743589885533,0.19178460941454395
1711795433104131800,3.1031318359375,-9.695342419156432,-1.4621743466578423,0.18100343195283786
1711795433114108000,3.11310791015625,-9.697897948858142,-1.446535171238333,0.16938834268394856
1711795433124084000,3.123083984375,-9.70071826697588,-1.42893521713987,0.1568158613586798
1711795433134060000,3.13306005859375,-9.703659581124782,-1.4102958369910716,0.14297680329685097
1711795433144035800,3.143035888671875,-9.706526076471805,-1.391766493088007,0.12931376852220855
1711795433154011000,3.153010986328125,-9.708988082671166,-1.3755039250731467,0.11798581649847328
1711795433163987000,3.162987060546875,-9.710801269572972,-1.3633635515548288,0.10936884046648629
1711795433173962800,3.172962646484375,-9.711916537338494,-1.355812551653385,0.10406635927734896
1711795433183939000,3.18293896484375,-9.71242682494819,-1.3523418068028985,0.10161049055783078
1711795433193915000,3.192914794921875,-9.712759417903422,-1.350038936688006,0.10044460684992372
1711795433203890000,3.202889892578125,-9.713188456970453,-1.347170395514369,0.09741977000287734
1711795433213866000,3.212865966796875,-9.713855396446585,-1.342919752332568,0.08922543982975184
1711795433223841800,3.222841796875,-9.71472224240899,-1.3374614869266748,0.07584352355143055
1711795433233817900,3.23281787109375,-9.7156001942873,-1.3318776954449711,0.059954592888243494
1711795433243794000,3.2427939453125,-9.716312726470827,-1.3273252928376198,0.04304901882868725
1711795433253770000,3.25277001953125,-9.716673960998653,-1.325096949263662,0.027333608968346378
1711795433263744800,3.262744873046875,-9.716697926396131,-1.3251101010061799,0.0155939400467847
1711795433273721000,3.27272119140625,-9.716435476067662,-1.327097037039697,0.008919704142739647
1711795433283697000,3.28269677734375,-9.716014620307087,-1.3301967566207051,0.0050515745971672
1711795433293672700,3.292672607421875,-9.715615391856431,-1.3331161511987446,0.0018166961737289965
1711795433303649000,3.30264892578125,-9.715341251090168,-1.3351136086262763,-0.0020018219337507616
1711795433313624800,3.312624755859375,-9.715181676614284,-1.3362509420931339,-0.007674385394161799
1711795433323600000,3.322599853515625,-9.715034377098084,-1.3372604113966227,-0.01490525452972506
1711795433333576000,3.332575927734375,-9.714770757725834,-1.3390604465559124,-0.0229827864978346
1711795433343552000,3.342552001953125,-9.714308985432982,-1.3422510592907666,-0.03076305597735336
1711795433353527800,3.35252783203125,-9.713636785259842,-1.3469406784117222,-0.03728736144587164
1711795433363503900,3.36250390625,-9.712790397563577,-1.3528978332504629,-0.041871019991300995
1711795433373480000,3.37247998046875,-9.711914783772826,-1.3590638085342943,-0.045147653342061674
1711795433383454700,3.382454833984375,-9.711131524440646,-1.3645736579969525,-0.04739064192930236
1711795433393431000,3.39243115234375,-9.71048913488388,-1.3691076481647788,-0.04823786987578496
1711795433403406800,3.40240673828125,-9.709996967452764,-1.3726071807183324,-0.04791552431993186
1711795433413382700,3.412382568359375,-9.70961469013691,-1.3753243307225405,-0.04742806959655135
1711795433423359000,3.42235888671875,-9.709120184618234,-1.378838330192864,-0.04664466413389891
1711795433433334800,3.432334716796875,-9.708283149272203,-1.3848003073371946,-0.04419174998987
1711795433443309800,3.442309814453125,-9.706917706137896,-1.3945022016622126,-0.03875076451234054
1711795433453286000,3.452285888671875,-9.70491279605627,-1.408605399686098,-0.029762774627318137
1711795433463262000,3.462261962890625,-9.702426824459433,-1.4258452883005142,-0.016298812938597983
1711795433473238000,3.472238037109375,-9.699864280495047,-1.4432650635264812,0.0018310676204928312
1711795433483213800,3.4822138671875,-9.697605687913297,-1.4581766553238034,0.023467777552781625
1711795433493190000,3.49218994140625,-9.695889531645179,-1.4690201208993792,0.04576304529404733
1711795433503164700,3.50216455078125,-9.694726333084702,-1.4759459746398031,0.06522588892125059
1711795433513141000,3.51214111328125,-9.693971715325116,-1.4801288132824002,0.08071619848855771
1711795433523116800,3.52211669921875,-9.693247492703795,-1.4840791583433746,0.09405051276548765
1711795433533092900,3.5320927734375,-9.692095984581112,-1.4907869854189455,0.10591397817172109
1711795433543069000,3.54206884765625,-9.690050157967208,-1.5031255118578672,0.11800381794604473
1711795433553044700,3.552044677734375,-9.687056821370124,-1.5210751561768352,0.13283195097730494
1711795433563020000,3.56202001953125,-9.683001993021369,-1.5449495143696665,0.15161949829198418
1711795433572995800,3.571995849609375,-9.677855862304568,-1.5745681153029203,0.1738550397692248
1711795433582972000,3.581971923828125,-9.671707861068844,-1.6096313915081322,0.1937491692194715
1711795433592948000,3.591947998046875,-9.664919223842023,-1.6485557270556688,0.20491192987728862
1711795433602923800,3.601923828125,-9.658328739535808,-1.6864698626473544,0.2071053665346466
1711795433612899800,3.61189990234375,-9.652708561566472,-1.7185764810040591,0.2051649182576686
1711795433622875000,3.621875,-9.648445643424987,-1.742503007775545,0.2038814908510074
1711795433632851000,3.631850830078125,-9.645558105289936,-1.7585927034415303,0.20233652643132954
1711795433642826800,3.64182666015625,-9.643597034350037,-1.7700673065274952,0.1956695245564915
1711795433652803000,3.651802978515625,-9.642111179706454,-1.7794914068244396,0.1829902766548097
1711795433662779000,3.66177880859375,-9.640800681629777,-1.7881113511316478,0.1673494755337946
1711795433672754000,3.67175390625,-9.63933879238367,-1.7972069501265882,0.15356579178785904
1711795433682730000,3.68172998046875,-9.637691025176643,-1.8066265203788876,0.14628848512810655
1711795433692705800,3.691705810546875,-9.636257192981242,-1.8142365569911896,0.14655036006784067
1711795433702681900,3.701681884765625,-9.63534767692089,-1.818628069948405,0.1518419728030916
1711795433712658000,3.711657958984375,-9.635166475135087,-1.8190977332867682,0.1576011482511647
1711795433722633700,3.7216337890625,-9.63575976485312,-1.815786855173111,0.15947885175654664
1711795433732608800,3.73160888671875,-9.637054480838776,-1.809168459946662,0.15643952059326693
1711795433742584800,3.741584716796875,-9.63881798337996,-1.800204378376901,0.151134929645434
1711795433752561000,3.751560791015625,-9.640646952372789,-1.7907392154172062,0.14684379005646334
1711795433762536700,3.76153662109375,-9.64217430807054,-1.7823768991328774,0.14829502091123722
1711795433772513000,3.771512939453125,-9.643210080859065,-1.7757785237811505,0.15966303095072507
1711795433782488800,3.78148876953125,-9.64368471263349,-1.771155101764202,0.18093453143509103
1711795433792464000,3.7914638671875,-9.643638535404206,-1.7685120399095118,0.20733174090273676
1711795433802440000,3.80143994140625,-9.643234046256541,-1.767398671840131,0.23391882865298538
1711795433812415700,3.811415771484375,-9.642467153537273,-1.7680727717094122,0.2590862588636577
1711795433822392000,3.82139208984375,-9.64135305481553,-1.7704055985711513,0.28348323442479595
1711795433832367900,3.831367919921875,-9.639837974077462,-1.7743059670105576,0.30942612425368277
1711795433842343000,3.841343017578125,-9.638133508247137,-1.7783885601490734,0.33778464212324466
1711795433852318700,3.851318603515625,-9.636555299144982,-1.7810902203232049,0.3672936452021822
1711795433862295000,3.861294921875,-9.63581354086697,-1.7793883848413825,0.39403161266520614
1711795433872270800,3.871270751953125,-9.636236734715103,-1.7721940894231198,0.41551268251333384
1711795433882247000,3.881246826171875,-9.637719082227349,-1.7611217835277317,0.42803051104191686
1711795433892223000,3.891222900390625,-9.639725745874642,-1.7493742087192832,0.4309949868706986
1711795433902197800,3.90119775390625,-9.641658175241947,-1.7395216538771987,0.4276433383552357
1711795433912174000,3.911174072265625,-9.643021864810585,-1.7330550882115958,0.42311899279858917
1711795433922150000,3.92114990234375,-9.643726798209547,-1.7293775687426327,0.42210243616718796
1711795433932125700,3.931125732421875,-9.643971128359436,-1.7271617923893035,0.4255787705082446
1711795433942102000,3.94110205078125,-9.644135963532328,-1.7246373884782193,0.43202615654934196
1711795433952077800,3.951077880859375,-9.64461702504754,-1.720061458864808,0.43946854497715826
1711795433962052900,3.961052978515625,-9.645746905860305,-1.7123064608238636,0.44492841781824827
1711795433972029000,3.97102880859375,-9.64750865483582,-1.7016868671320378,0.4474604935791343
1711795433982005500,3.981005615234375,-9.649607672941684,-1.6896816643007098,0.44769072213843464
1711795433991981600,3.990981689453125,-9.651693831565975,-1.6783187048956751,0.44546639715246855
1711795434001957400,4.000957275390625,-9.653467855501175,-1.669347316802293,0.44070645274166015
1711795434011933400,4.010933349609375,-9.654652096849679,-1.664221205960214,0.4341029993560165
1711795434021908500,4.020908447265625,-9.655163553503154,-1.6635896300584077,0.42504948593713343
1711795434031884500,4.030884521484375,-9.654897011521458,-1.6675674476481974,0.4154094413345679
1711795434041860600,4.040860595703125,-9.653901570743322,-1.6754831892088056,0.40660358253382145
1711795434051836400,4.05083642578125,-9.652394088789821,-1.6855797819398342,0.40061442512162027
1711795434061812500,4.0608125,-9.65052946396172,-1.6967089325889944,0.39855712726563214
1711795434071787500,4.07078759765625,-9.648486559957265,-1.7078963892966508,0.4002329149907455
1711795434081763600,4.080763671875,-9.646427289339899,-1.7183695602551101,0.40500469596981997
1711795434091739400,4.090739501953125,-9.64457727755904,-1.7273960395365953,0.41062640830911695
1711795434101715500,4.100715576171875,-9.643130585882068,-1.7351080752186476,0.4120938505131751
1711795434111691500,4.11069140625,-9.642014149072766,-1.742684209561348,0.40619982403852045
1711795434121667600,4.12066748046875,-9.640984221503137,-1.7510172997511921,0.39465047521591184
1711795434131642600,4.130642578125,-9.639828037205337,-1.7603259569749234,0.3812550966678187
1711795434141618400,4.140618408203125,-9.638553779485822,-1.769929213231057,0.3687991178616881
1711795434151594500,4.150594482421875,-9.637277768200635,-1.7787395655438303,0.3596550035499036
1711795434161570600,4.160570556640625,-9.636208093142509,-1.785750321088731,0.35352212681807577
1711795434171546400,4.17054638671875,-9.635564534541963,-1.7904269345976411,0.3473474933037534
1711795434181522700,4.180522705078125,-9.635565703585744,-1.792022825486958,0.3389897070640698
1711795434191497500,4.19049755859375,-9.636288172641397,-1.790178074403107,0.32801592963971193
1711795434201473500,4.2004736328125,-9.637592240977286,-1.7855927924394606,0.3144271474113688
1711795434211449600,4.21044970703125,-9.639249945056438,-1.779313712169975,0.2988108962097205
1711795434221425400,4.22042529296875,-9.641106971099973,-1.7719463982723653,0.28221664855508133
1711795434231401500,4.2304013671875,-9.642958736446499,-1.76433314678967,0.2662005113156512
1711795434241377500,4.24037744140625,-9.644632807138562,-1.757495994246006,0.25030456638978793
1711795434251352600,4.2503525390625,-9.646044427502154,-1.7518348997443913,0.23511784744551403
1711795434261328400,4.260328369140625,-9.647727266022562,-1.7439787794165311,0.2242412102526985
1711795434271304700,4.2703046875,-9.650381579923629,-1.729998038728535,0.21822222395781427
1711795434281280500,4.280280517578125,-9.654508304464816,-1.7078335531935094,0.21012831281870603
1711795434291256300,4.29025634765625,-9.660051910066604,-1.6779729601979254,0.19542977925017474
1711795434301231600,4.300231689453125,-9.666333766815066,-1.643829575316608,0.17377830300489439
1711795434311207400,4.31020751953125,-9.672366617238522,-1.6104614125914871,0.14872238861098885
1711795434321183500,4.32018359375,-9.677190676394105,-1.5833084711194036,0.12450548232449218
1711795434331159600,4.33015966796875,-9.680340080335736,-1.565434814646095,0.1039935954352375
1711795434341135600,4.340135498046875,-9.68167220572233,-1.5581556174233555,0.08810592514737509
1711795434351111400,4.350111328125,-9.681485743239522,-1.559903922395408,0.0769088329616934
1711795434361086700,4.360086669921875,-9.68021791526079,-1.568023369834572,0.07122490100718569
1711795434371062500,4.3700625,-9.67846727220118,-1.5788300105310975,0.07035863956667017
1711795434381038300,4.380038330078125,-9.67664064129591,-1.5900122065417468,0.06976324922309722
1711795434391014700,4.3900146484375,-9.67494377425015,-1.6005188413783906,0.06466134124051313
1711795434400990500,4.399990478515625,-9.673326402181386,-1.6106662875138222,0.05376128663949203
1711795434410965500,4.409965576171875,-9.671588618603348,-1.621468105904758,0.039982881856872696
1711795434420941600,4.419941650390625,-9.669229488256573,-1.6357772017642855,0.02477784637119621
1711795434430917400,4.42991748046875,-9.665824063727259,-1.6559321010425685,0.010936837239231681
1711795434440893400,4.4398935546875,-9.66138286640942,-1.6816816054575143,0.003888208500387554
1711795434450869500,4.449869384765625,-9.656094696873426,-1.7117789298184214,0.005381580015557119
1711795434460845600,4.459845458984375,-9.650420742890239,-1.7434392657123505,0.01343811942798784
1711795434470820400,4.4698203125,-9.645148939967155,-1.772233983042091,0.02583096073687775
1711795434480796700,4.479796630859375,-9.641151394763588,-1.7935437514439223,0.042215344483521766
1711795434490772500,4.4897724609375,-9.639054714745283,-1.804322335089743,0.05851216182785574
1711795434500748300,4.499748291015625,-9.639033671957254,-1.8040815120711922,0.06860981857138686
1711795434510724600,4.509724609375,-9.640817048242688,-1.7945462064847348,0.0681137147506699
1711795434520700400,4.519700439453125,-9.643752517172693,-1.779127980339527,0.05585394350322894
1711795434530675500,4.529675537109375,-9.64720879510641,-1.7608172476232051,0.03556529146019602
1711795434540651500,4.539651611328125,-9.650448215419054,-1.7432985420674085,0.011749126303073716
1711795434550627600,4.549627685546875,-9.65287982648015,-1.7297841037169097,-0.01195459145552013
1711795434560603600,4.559603759765625,-9.654236501786112,-1.7219700689651072,-0.030376732674043158
1711795434570579500,4.569579345703125,-9.654430563053488,-1.7206141243115067,-0.04290893907113932
1711795434580555500,4.579555419921875,-9.653330492857098,-1.7264859389543532,-0.053333635811950074
1711795434590530300,4.5895302734375,-9.651131521508097,-1.73840477867648,-0.06319175731171854
1711795434600506600,4.599506591796875,-9.648277301120757,-1.7538408327393233,-0.07191904358407482
1711795434610482400,4.609482421875,-9.645368135675787,-1.7694241863183675,-0.0799674259478692
1711795434620458500,4.61945849609375,-9.642897946169972,-1.782462677720189,-0.08794839649810456
1711795434630434600,4.6294345703125,-9.641244333744048,-1.7910078032255172,-0.09528827439951709
1711795434640409300,4.639409423828125,-9.640463412499427,-1.794781914936751,-0.10297201556884683
1711795434650385700,4.6493857421875,-9.64053180156052,-1.79398652677536,-0.11022369459699839
1711795434660361500,4.659361572265625,-9.641350132206082,-1.7893433771446345,-0.11403321554833092
1711795434670337500,4.669337646484375,-9.642890931907296,-1.7811673772126435,-0.11171953177847899
1711795434680313600,4.679313720703125,-9.645195701718329,-1.7692213572226463,-0.1021665718043223
1711795434690289400,4.689289306640625,-9.64843862916231,-1.7523453334845602,-0.08543602095153183
1711795434700264400,4.699264404296875,-9.65260042501688,-1.7301878622122109,-0.06431556001014542
1711795434710240500,4.709240478515625,-9.65761796091795,-1.7026402223341166,-0.04267011164685245
1711795434720216600,4.719216552734375,-9.663217680621146,-1.6709417463868856,-0.0236448762689135
1711795434730192400,4.7291923828125,-9.66893722731173,-1.6376558551177383,-0.010924085072224261
1711795434740168400,4.73916845703125,-9.674334702441096,-1.6054834780484437,-0.007313978558464441
1711795434750143500,4.7491435546875,-9.679078682097792,-1.5765942143030465,-0.013157254376704805
1711795434760119600,4.75911962890625,-9.683011929893492,-1.5520729365088044,-0.027175904505851212
1711795434770095600,4.769095703125,-9.686046183022857,-1.5325643723100424,-0.04630781512865796
1711795434780071400,4.779071533203125,-9.68814578565061,-1.518545783829689,-0.06505696666170843
1711795434790047500,4.789047607421875,-9.689335287696123,-1.5103576550684867,-0.07737114411066286
1711795434800023600,4.7990234375,-9.68965677473545,-1.5080981857039033,-0.08107938751145266
1711795434809998600,4.80899853515625,-9.689037181532383,-1.5122975370898841,-0.07678606509855017
1711795434819974400,4.818974365234375,-9.687454296255112,-1.5229355432212353,-0.06542431126991287
1711795434829950500,4.828950439453125,-9.685006318581104,-1.5389818381369114,-0.0506735177911818
1711795434839926500,4.838926513671875,-9.682115273314714,-1.5574549218080938,-0.036863069335906766
1711795434849902300,4.84890234375,-9.679406598877906,-1.574392320344597,-0.027655308353516737
1711795434859877600,4.858877685546875,-9.67729355224669,-1.5873359730698167,-0.02706606690622866
1711795434869853400,4.868853515625,-9.676143213167785,-1.5942124347105622,-0.03347681529794354
1711795434879829500,4.87882958984375,-9.675946229290961,-1.5951633056946097,-0.04355768987003248
1711795434889805600,4.8888056640625,-9.676498017954826,-1.5914115519456564,-0.056366824928810816
1711795434899781400,4.898781494140625,-9.677320440253615,-1.585853479427099,-0.0701416769143194
1711795434909757700,4.9087578125,-9.678015436780452,-1.5808559634007513,-0.08539332345412112
1711795434919732500,4.918732421875,-9.67837199513316,-1.5776098210863767,-0.10315908997301011
1711795434929708500,4.92870849609375,-9.678443306803702,-1.5759239138260484,-0.12074958212338387
1711795434939684400,4.938684326171875,-9.67835621304214,-1.575176602590084,-0.13646311055389232
1711795434949660400,4.948660400390625,-9.67809317819178,-1.5757545486085116,-0.14797404532856306
1711795434959636500,4.958636474609375,-9.677520931261776,-1.5786404793083666,-0.15448920850940048
1711795434969611500,4.968611572265625,-9.676251349717377,-1.58620594612658,-0.15651362700909374
1711795434979587600,4.978587646484375,-9.674042441496253,-1.5998051401510833,-0.1546131819489412
1711795434989564200,4.988564208984375,-9.670862057894468,-1.6194672874763607,-0.14876797218522989
1711795434999540000,4.9985400390625,-9.666892569741606,-1.6438839358523487,-0.1386303898566868
1711795435009516000,5.00851611328125,-9.66257879819572,-1.6701934122376143,-0.12413690474042668
1711795435019492000,5.0184921875,-9.658421678516268,-1.6952081726372241,-0.10744155306518077
1711795435029467100,5.028467041015625,-9.654808164194225,-1.7165452674373984,-0.09241053613927215
1711795435039443000,5.03844287109375,-9.65200245912373,-1.7328296088926494,-0.08082580547602847
1711795435049419300,5.048419189453125,-9.650002809739112,-1.7442853611476719,-0.07275193247795105
1711795435059395000,5.05839501953125,-9.648478376650809,-1.7529086664557456,-0.06754292455881368
1711795435069371000,5.068370849609375,-9.647233345025777,-1.7598891729928552,-0.06376834249012171
1711795435079347200,5.07834716796875,-9.646049103677273,-1.7664033771924674,-0.06275416047889738
1711795435089322000,5.088322021484375,-9.644732760381698,-1.7735007881075142,-0.06485341148020234
1711795435099298000,5.098298095703125,-9.643094930046797,-1.7822697854965923,-0.06798359013155568
1711795435109274000,5.108274169921875,-9.641032152298092,-1.7932794014193116,-0.07090306690798606
1711795435119250200,5.118250244140625,-9.63838894431293,-1.8073881524011493,-0.07202493337765335
1711795435129226200,5.128226318359375,-9.63510393129289,-1.8248693024255334,-0.07075880873224231
1711795435139201300,5.138201171875,-9.631190557241439,-1.845544864577055,-0.06717805960206315
1711795435149177000,5.148177001953125,-9.626894905874133,-1.8679846599221228,-0.06254878779964056
1711795435159153000,5.15815283203125,-9.622539048752188,-1.890405458305776,-0.059064448248641564
1711795435169129200,5.168129150390625,-9.618586511734128,-1.9104706334739923,-0.05725090058722999
1711795435179105000,5.17810498046875,-9.615902387216687,-1.9240202892683445,-0.05433796771601773
1711795435189081000,5.1880810546875,-9.615099254140258,-1.928137076937407,-0.05035823216377757
1711795435199056100,5.19805615234375,-9.616241994434594,-1.9224866499602793,-0.04821150245866738
1711795435209032000,5.208031982421875,-9.618847793018817,-1.9093555118389427,-0.050080123041872864
1711795435219008300,5.21800830078125,-9.622223406931758,-1.8921433880142866,-0.05477162815923802
1711795435228984000,5.227984130859375,-9.625561611443757,-1.8749775875493884,-0.05841479783402755
1711795435238960000,5.237960205078125,-9.62816799454987,-1.8615251085191964,-0.059081303485319946
1711795435248935000,5.247934814453125,-9.629760816699266,-1.8533144756652413,-0.05762126826958265
1711795435258911200,5.2579111328125,-9.630414312171936,-1.849926294531673,-0.05720089199962094
1711795435268887000,5.267886962890625,-9.630343000501394,-1.85021636351943,-0.05985239745567087
1711795435278863000,5.277863037109375,-9.62964215875566,-1.8536225187011062,-0.06679748105295003
1711795435288839200,5.287839111328125,-9.62816507194042,-1.8608070233777165,-0.07888975024637766
1711795435298815000,5.29781494140625,-9.625723524007201,-1.872634969945997,-0.09521231395332141
1711795435308790300,5.307790283203125,-9.622439095509051,-1.888531188866496,-0.11181368546849116
1711795435318766000,5.31776611328125,-9.618734395772218,-1.9064865322738884,-0.12505643073813988
1711795435328742100,5.3277421875,-9.615216743040085,-1.9237011403165756,-0.13179725590101443
1711795435338718200,5.33771826171875,-9.612430911713838,-1.9376910872243345,-0.13004097768506034
1711795435348694000,5.347694091796875,-9.610388007709384,-1.9481946533210575,-0.12396616954971104
1711795435358669000,5.3576689453125,-9.608787002253532,-1.9563491720736026,-0.11955063639609143
1711795435368645000,5.36764501953125,-9.606935821428895,-1.965432642239332,-0.11933616252834908
1711795435378621200,5.37762109375,-9.604023148852587,-1.9794000850543378,-0.12286371559998951
1711795435388597000,5.387596923828125,-9.599774843758343,-1.999703306762129,-0.12605863918378016
1711795435398573000,5.397572998046875,-9.594496026572585,-2.0250458378113807,-0.1233518553099595
1711795435408549000,5.407549072265625,-9.588897475913166,-2.0520161161929367,-0.11252692090491763
1711795435418524000,5.41752392578125,-9.583869418618082,-2.0762365113444625,-0.09524827118269168
1711795435428500200,5.427500244140625,-9.58031377196312,-2.0933866758488118,-0.07554354965758975
1711795435438476000,5.43747607421875,-9.578647884577512,-2.101555807648599,-0.05792047497844323
1711795435448452000,5.4474521484375,-9.57883960775733,-2.1009816610224545,-0.045762287242221644
1711795435458428200,5.45742822265625,-9.580272270908951,-2.0945614187166095,-0.039780673815659244
1711795435468403200,5.4674033203125,-9.582216390714049,-2.0857069350011646,-0.036663674306287426
1711795435478379000,5.47737890625,-9.58391150419414,-2.0779617277018723,-0.033104191726422864
1711795435488355000,5.48735498046875,-9.584940262719988,-2.0733215006805956,-0.025341151942918076
1711795435498331100,5.4973310546875,-9.58536637917757,-2.071470612116903,-0.012009065014048246
1711795435508307000,5.507306884765625,-9.585675591257214,-2.070068344103545,0.005465543959228671
1711795435518282200,5.5172822265625,-9.58674585083723,-2.06496722157225,0.024427475730678997
1711795435528258000,5.527258056640625,-9.589254618787765,-2.0530162331461903,0.04121777568038087
1711795435538234000,5.537234130859375,-9.59349824770689,-2.032825385771692,0.052920502133527766
1711795435548210200,5.547210205078125,-9.599238837185501,-2.005367323873192,0.05917254826561547
1711795435558186000,5.55718603515625,-9.605793081134557,-1.9736884294092654,0.060610924205393525
1711795435568162300,5.567162353515625,-9.612364276218413,-1.9414783506780862,0.059160903493594375
1711795435578137000,5.57713720703125,-9.618233460512757,-1.9122591243259608,0.05685556742697954
1711795435588113200,5.587113037109375,-9.62274012428224,-1.8894709539346395,0.05613595704869367
1711795435598089000,5.5970888671875,-9.625394438183307,-1.8758464793384073,0.05803340186758432
1711795435608065000,5.60706494140625,-9.625962593460082,-1.8727811004184185,0.06257888154380489
1711795435618041000,5.617041015625,-9.624602411022781,-1.8795485487267374,0.06867345382554922
1711795435628015900,5.627015869140625,-9.621779170295596,-1.893659783926606,0.07615107796352821
1711795435637992200,5.6369921875,-9.61811597161293,-1.911853027743101,0.08395336291203274
1711795435647968000,5.646968017578125,-9.61425286644399,-1.9308764387734234,0.09077425844063981
1711795435657944300,5.6569443359375,-9.610774376678465,-1.9479012233324349,0.09528112313952296
1711795435667920100,5.666920166015625,-9.6082843134284,-1.9601063326500354,0.09611716297171079
1711795435677896000,5.67689599609375,-9.607012978318332,-1.9665112312562762,0.09231535953595302
1711795435687871000,5.68687109375,-9.606801381394266,-1.967909846007824,0.08416861309790984
1711795435697847000,5.696846923828125,-9.607368367627263,-1.965572635231912,0.07334694379561114
1711795435707823000,5.706822998046875,-9.608276714643836,-1.9615058241844177,0.06244665173257235
1711795435717799200,5.716799072265625,-9.609243513849377,-1.9570291171617804,0.053493529948242934
1711795435727775000,5.72677490234375,-9.60998410308361,-1.953528269433975,0.04807762411304284
1711795435737750000,5.73675,-9.610216158273815,-1.9524094945371149,0.04719794150195084
1711795435747726000,5.74672607421875,-9.609978257864713,-1.9535097108639776,0.049975680853286755
1711795435757702100,5.7567021484375,-9.609510055831073,-1.9556828171193599,0.05483190241253469
1711795435767678000,5.766677978515625,-9.60925578880906,-1.9567504463508725,0.06092330092308111
1711795435777654300,5.776654296875,-9.60944166676998,-1.9556777025528251,0.06587928392922039
1711795435787629000,5.786629150390625,-9.610081133717298,-1.9524489497646689,0.06832915216621477
1711795435797605000,5.796605224609375,-9.61110170893669,-1.947408179118484,0.06866257167193107
1711795435807581200,5.806581298828125,-9.612174891126156,-1.9421134337112307,0.06839852760799695
1711795435817557000,5.816556884765625,-9.613090836927293,-1.9375550397545098,0.06891560571808368
1711795435827533000,5.826532958984375,-9.613631519675254,-1.934790835738182,0.07111370941740461
1711795435837509000,5.836509033203125,-9.613592941230534,-1.934858055755496,0.07439517420690972
1711795435847484200,5.846484130859375,-9.613127077284455,-1.9370653565414249,0.07714267825018614
1711795435857460000,5.8564599609375,-9.612419221276044,-1.9404634745471179,0.0798827616054099
1711795435867436300,5.866436279296875,-9.611730069968104,-1.9437388429559765,0.08314943525115959
1711795435877412000,5.876412109375,-9.61117769678235,-1.9462471725150943,0.0881199628058821
1711795435887388000,5.886387939453125,-9.610925183326005,-1.9472214243747292,0.09397636981704272
1711795435897363200,5.89636328125,-9.611043256747722,-1.9463944720312951,0.0989141367464792
1711795435907339000,5.906339111328125,-9.611507367128134,-1.943926474482566,0.10225820474368519
1711795435917315000,5.916315185546875,-9.612126960331201,-1.940765380103141,0.1040438460514415
1711795435927291100,5.926291015625,-9.612623219415545,-1.9382297241456805,0.10548950568195432
1711795435937267000,5.936266845703125,-9.613020109778642,-1.9362058171026408,0.1064850560579449
1711795435947243000,5.946242919921875,-9.613320554029942,-1.9347414436385035,0.10593729511522687
1711795435957218000,5.956218017578125,-9.613525136691331,-1.933825643967837,0.10410371387936174
1711795435967194000,5.966194091796875,-9.613533319997787,-1.9338767896331845,0.10237568451035767
1711795435977170000,5.976169921875,-9.61306336439848,-1.936134505432099,0.10380251157623716
1711795435987145700,5.986145751953125,-9.611747021102905,-1.9423150937631726,0.110048886019364
1711795435997121800,5.996121826171875,-9.60953869740367,-1.952358933393657,0.12428551029772497
1711795436007096800,6.006096923828125,-9.606797289741039,-1.9640287667907774,0.1497219849744346
1711795436017072600,6.01607275390625,-9.603983985885977,-1.9747038900621234,0.18553932181680574
1711795436027048700,6.026048583984375,-9.601651743546128,-1.9818010087162254,0.22612050292696803
1711795436037024800,6.036024658203125,-9.600216742306948,-1.984056386427581,0.2640889077228494
1711795436047000600,6.04600048828125,-9.599978257375955,-1.9805567077435553,0.29697776249842717
1711795436056976000,6.055975830078125,-9.60047510098219,-1.973863639845699,0.3242296160340309
1711795436066951700,6.06595166015625,-9.601038580083847,-1.9672386687479912,0.3470110644236207
1711795436076927700,6.075927734375,-9.601148470199108,-1.9629417022064326,0.36768085442148146
1711795436086903800,6.08590380859375,-9.600299744415283,-1.9630285037070512,0.3887768704747781
1711795436096879600,6.095879638671875,-9.598069793406129,-1.9688450810313223,0.413636403780058
1711795436106856000,6.10585595703125,-9.594380875760317,-1.9802914809361098,0.4434951701447367
1711795436116830700,6.115830810546875,-9.589480828759074,-1.9968376881979404,0.474218115590699
1711795436126806800,6.125806884765625,-9.583867080530524,-2.017586023324728,0.49922436389029023
1711795436136782600,6.135782470703125,-9.578180267065763,-2.0402922145210205,0.5158003087032587
1711795436146759000,6.145759033203125,-9.572990881729126,-2.0622377966083585,0.5247898900404572
1711795436156734700,6.155734619140625,-9.568658990004659,-2.0815945312462745,0.5273679238349199
1711795436166709800,6.165709716796875,-9.565300911748409,-2.0976275282889603,0.5247446991918608
1711795436176685800,6.175685791015625,-9.562945873054861,-2.1100442345306276,0.5178492040570825
1711795436186661600,6.18566162109375,-9.561492167115212,-2.119609058472514,0.505480245947279
1711795436196638000,6.195637939453125,-9.560682019776106,-2.1276560251973566,0.48664581815041597
1711795436206613800,6.20561376953125,-9.559916296100615,-2.1363675933107733,0.46294590320903806
1711795436216588800,6.2155888671875,-9.558650221687556,-2.147459480689466,0.4370479302341118
1711795436226564600,6.225564697265625,-9.556499765655397,-2.161741688542068,0.4129997863769531
1711795436236540700,6.235540771484375,-9.553533317065238,-2.1780545254394412,0.3955561553513631
1711795436246516700,6.245516845703125,-9.550253564742206,-2.193887908256799,0.38716596467942
1711795436256492800,6.255492919921875,-9.547344983819126,-2.2070225535094736,0.3842443416116759
1711795436266468900,6.26546875,-9.545485035166143,-2.215916346322,0.3792336738428101
1711795436276443600,6.275443603515625,-9.545070609146356,-2.2193185559809208,0.3696442269163206
1711795436286420000,6.285419921875,-9.546259526669978,-2.216342608910054,0.3565724542994052
1711795436296395800,6.295395751953125,-9.548694060340523,-2.2078958292126654,0.3435479548903182
1711795436306371600,6.30537158203125,-9.551783843049407,-2.1961606754943728,0.3327029549447819
1711795436316348000,6.315347900390625,-9.555016249099372,-2.183201094547659,0.3250916396908462
1711795436326322700,6.32532275390625,-9.557731937798858,-2.1719657070450484,0.3204782276112586
1711795436336298800,6.335298828125,-9.559507715299725,-2.1645951782770454,0.31737573155127463
1711795436346274800,6.34527490234375,-9.560558685657382,-2.1606658760040998,0.3124565414581448
1711795436356251000,6.3552509765625,-9.561340191423893,-2.158276788910478,0.3049590983748436
1711795436366226700,6.365226806640625,-9.562514495900272,-2.154223567996919,0.2966940501862205
1711795436376202000,6.375201904296875,-9.56486778102815,-2.1449043893791733,0.28822056514499705
1711795436386177800,6.385177734375,-9.569112578991055,-2.126959128974378,0.2801970340946689
1711795436396153600,6.395153564453125,-9.575445873665808,-2.099224734352529,0.2729072606789879
1711795436406130000,6.4051298828125,-9.583616905161739,-2.062791484968364,0.2637402038830332
1711795436416105700,6.415105712890625,-9.593132921525836,-2.0197309263989327,0.2507533330705948
1711795436426081500,6.42508154296875,-9.603376083120704,-1.9723153874903916,0.2356279158595018
1711795436436056800,6.435056884765625,-9.61352630573511,-1.9242713414199648,0.21833841594969852
1711795436446032600,6.44503271484375,-9.622895022583007,-1.8791069424390792,0.19808451327634974
1711795436456008700,6.4550087890625,-9.63066741015017,-1.8410982604317365,0.17603064850894734
1711795436465984800,6.46498486328125,-9.636267129853367,-1.8136646023221312,0.15285264768297782
1711795436475960800,6.4749609375,-9.639550973829627,-1.7980707273490726,0.12798915058863347
1711795436485935600,6.484935546875,-9.640994158375262,-1.7919453763365745,0.10270503519573249
1711795436495912000,6.494911865234375,-9.641270637229084,-1.7916158521212637,0.08000977638540789
1711795436505887700,6.5048876953125,-9.64127940505743,-1.7923166938669979,0.06100251277228817
1711795436515863600,6.514863525390625,-9.6417628046602,-1.79018187379539,0.045222883135895245
1711795436525840000,6.52483984375,-9.643175009545683,-1.7828773960009217,0.030211050401069223
1711795436535814700,6.534814697265625,-9.645480363878606,-1.7705606430023908,0.014305676634801784
1711795436545790700,6.544790771484375,-9.64844096724987,-1.7544142487131058,-0.002285924117491231
1711795436555766800,6.554766845703125,-9.65157225101292,-1.7370036797069013,-0.018807806934707332
1711795436565742800,6.564742919921875,-9.654597151792048,-1.719891362994909,-0.03335916885120095
1711795436575718700,6.57471875,-9.657514500543474,-1.7031927416503427,-0.0439154126999434
1711795436585694000,6.58469384765625,-9.660390932762622,-1.6866086865961551,-0.05079863744161557
1711795436595669800,6.594669677734375,-9.663258012631536,-1.6700030042320488,-0.05402658651217352
1711795436605645600,6.6046455078125,-9.666154318594932,-1.6531499229781328,-0.054254600281501184
1711795436615622000,6.614621826171875,-9.669046532905101,-1.636176284084469,-0.05337020496267359
1711795436625597700,6.62459765625,-9.671928225821256,-1.6190724429398775,-0.05287142969425768
1711795436635573800,6.63457373046875,-9.674910456502436,-1.6011425262346863,-0.05319304916432593
1711795436645548800,6.644548828125,-9.678114805501698,-1.5815835470229387,-0.05542052965518087
1711795436655524600,6.654524658203125,-9.681533089512586,-1.5603417292907833,-0.060254585048393344
1711795436665500700,6.664500732421875,-9.685064770770072,-1.5379659390926361,-0.0675907914216863
1711795436675476700,6.674476806640625,-9.688583008024096,-1.5152034876644611,-0.07680351855685003
1711795436685452800,6.684452880859375,-9.691881465047597,-1.4934151419654487,-0.08676789974295533
1711795436695427600,6.694427490234375,-9.694612935838103,-1.4750897962018847,-0.09472842116020619
1711795436705404000,6.70440380859375,-9.696555886599421,-1.4620572961494325,-0.09788259260850027
1711795436715379700,6.714379638671875,-9.697685182890295,-1.4547969497576354,-0.0941127734798938
1711795436725355800,6.724355712890625,-9.698092594647408,-1.4527807876296341,-0.08255152415693737
1711795436735331800,6.734331787109375,-9.697959908178449,-1.4545627026103436,-0.0648081886655651
1711795436745306600,6.744306640625,-9.697540805983543,-1.4581684720173478,-0.04282022417464759
1711795436755282700,6.75428271484375,-9.697018827936052,-1.4621215935572982,-0.0202821880529169
1711795436765258800,6.7642587890625,-9.696579267475009,-1.4651725055605171,-0.00026973046940374844
1711795436775234800,6.77423486328125,-9.696318570712208,-1.466807559416443,0.0161920737616485
1711795436785211000,6.7842109375,-9.6963530575037,-1.4663837810464202,0.02900619095622096
1711795436795186000,6.79418603515625,-9.696553548511861,-1.4648425429537892,0.03832411376521922
1711795436805161700,6.80416162109375,-9.696894324773549,-1.462386674234271,0.04527057190225459
1711795436815137800,6.8141376953125,-9.697350251847505,-1.4591481307044625,0.05165587532545905
1711795436825113900,6.82411376953125,-9.697962830787896,-1.4548393275946379,0.05778092494385782
1711795436835089700,6.834089599609375,-9.698605804866553,-1.4502704122439025,0.06437556940196082
1711795436845064700,6.844064697265625,-9.699179220840334,-1.446101602126658,0.0713681956351269
1711795436855040800,6.854040771484375,-9.699438748559356,-1.4439676588378845,0.0789471247231122
1711795436865016600,6.8640166015625,-9.69900211070776,-1.4464282037325202,0.08712655872120521
1711795436874993000,6.873992919921875,-9.697496966841817,-1.455913386566937,0.0962086680469103
1711795436884968700,6.88396875,-9.694608259662985,-1.4744237335085868,0.10499752091392874
1711795436894944800,6.89394482421875,-9.690343587955832,-1.5016634764812886,0.11239688305077142
1711795436904919800,6.903919921875,-9.685157709750532,-1.5342233915634453,0.11944519412708468
1711795436914896000,6.913895751953125,-9.679871878302096,-1.5666006435550748,0.12737796902088447
1711795436924871700,6.92387158203125,-9.67548270343244,-1.5928671575814484,0.13489796186271122
1711795436934847700,6.93384765625,-9.67259341173172,-1.6101543924689292,0.13681845419704913
1711795436944823800,6.94382373046875,-9.67134078132212,-1.6182352614633737,0.12985561118079347
1711795436954798600,6.953798583984375,-9.67140040255487,-1.6189588995628057,0.11562074046810157
1711795436964775000,6.96377490234375,-9.672306996005773,-1.6147154167741535,0.09775047239512205
1711795436974750700,6.973750732421875,-9.673399467417598,-1.6092079053990542,0.07862029478838667
1711795436984726500,6.9837265625,-9.674235918241738,-1.6049818121366202,0.059857123863138254
1711795436994702300,6.993702392578125,-9.674733346369862,-1.6025199520677327,0.04305413796179928
1711795437004677400,7.003677490234375,-9.675008656179905,-1.6011949870742856,0.027687518706242552
1711795437014653400,7.0136533203125,-9.675001641917229,-1.6014331797443329,0.011889357899315655
1711795437024629200,7.023629150390625,-9.674576109981537,-1.6040400012418627,-0.004044225327172898
1711795437034605300,7.033605224609375,-9.67344973630011,-1.6107222554847598,-0.018214045717573023
1711795437044581400,7.043581298828125,-9.671656423142553,-1.621320806388557,-0.02766004161085002
1711795437054556400,7.053556396484375,-9.669379125860333,-1.634779569029063,-0.03147286876412109
1711795437064532200,7.0635322265625,-9.666972064718603,-1.6489679611183703,-0.030679743341763967
1711795437074508500,7.073508544921875,-9.664676062735914,-1.6624387064576147,-0.026712604692904277
1711795437084484400,7.083484375,-9.66252151505053,-1.6749788929484783,-0.022612539829779416
1711795437094460400,7.09346044921875,-9.660383333978057,-1.6872975456431507,-0.02007905527980765
1711795437104435500,7.103435546875,-9.658142277052997,-1.7000845465019345,-0.019528501875093206
1711795437114411300,7.113411376953125,-9.655571549782156,-1.7146077235035597,-0.02104684086603811
1711795437124387300,7.12338720703125,-9.6524858587265,-1.7318693855583667,-0.023117393212532623
1711795437134363400,7.13336328125,-9.648694649749993,-1.7528642427921295,-0.023196292251197154
1711795437144339200,7.143339111328125,-9.644214289465546,-1.7774053943306207,-0.018692682380258337
1711795437154314200,7.153314208984375,-9.63907575753331,-1.8051362818211316,-0.00913928401468438
1711795437164290300,7.163290283203125,-9.633384267893433,-1.8352847518473863,0.00464908418328996
1711795437174266400,7.173266357421875,-9.627606269013882,-1.8652591804809868,0.019824110121070406
1711795437184242400,7.183242431640625,-9.622415714633464,-1.8916608651943503,0.033377896384557244
1711795437194218500,7.193218505859375,-9.618408232557773,-1.9117294013634323,0.04354415453502442
1711795437204194300,7.2031943359375,-9.616166006588935,-1.9228597210563718,0.0484177701870678
1711795437214169300,7.21316943359375,-9.615991819065808,-1.9237679219424724,0.046929408492567014
1711795437224145400,7.2231455078125,-9.617671150454878,-1.915479255416244,0.04148703477554954
1711795437234121200,7.233121337890625,-9.620943303993343,-1.899144206687063,0.032944192558852954
1711795437244097500,7.24309765625,-9.625237201794981,-1.8773888864748178,0.024471365104755387
1711795437254073300,7.2530732421875,-9.629966568404436,-1.8530382890723645,0.019321425862517207
1711795437264048400,7.26304833984375,-9.634649173262714,-1.8285481370687484,0.01815032940666424
1711795437274024400,7.2730244140625,-9.639086863449215,-1.804983283216506,0.02049076646941248
1711795437284000500,7.28300048828125,-9.643389529079199,-1.7817811251968145,0.026080576699948867
1711795437293976300,7.292976318359375,-9.647742463591694,-1.757915680962801,0.03431385977712925
1711795437303952400,7.302952392578125,-9.652231591704487,-1.7329117342181504,0.0427683113243198
1711795437313927400,7.312927490234375,-9.656859251505136,-1.7067758608341217,0.04873310604682192
1711795437323903200,7.3229033203125,-9.661473467302322,-1.680344803895801,0.052465817168587815
1711795437333879600,7.332879638671875,-9.665701314130425,-1.655778664046526,0.05474041103706695
1711795437343855400,7.34285546875,-9.66923533347547,-1.635018053960055,0.05469432513932697
1711795437353831200,7.3528310546875,-9.671880879548192,-1.6193588586658239,0.052768832402885886
1711795437363806500,7.362806396484375,-9.673576577550172,-1.6092648962832987,0.05069294401085935
1711795437373782300,7.3727822265625,-9.674369773754478,-1.6044843840084968,0.05087295848657377
1711795437383758300,7.38275830078125,-9.674630470517277,-1.6027946773558854,0.05436416160319932
1711795437393734400,7.392734375,-9.674839144831894,-1.601319197975844,0.0604357594347326
1711795437403710500,7.40271044921875,-9.675406131064891,-1.5976235583283007,0.0670819559835596
1711795437413685200,7.412685302734375,-9.67669558635354,-1.5895385976806282,0.0728626445771195
1711795437423661600,7.42266162109375,-9.678759533146023,-1.5767261701196431,0.07700542520396411
1711795437433637400,7.432637451171875,-9.681458270710706,-1.560009282466024,0.07822425380866042
1711795437443613200,7.44261328125,-9.684556236726046,-1.5407171374969184,0.07711232877769507
1711795437453589500,7.452589599609375,-9.687900870978831,-1.5195812643572688,0.07637431965961586
1711795437463564300,7.462564208984375,-9.69133376803696,-1.4974810762301087,0.07738427758687175
1711795437473540400,7.472540283203125,-9.694687170118092,-1.4754703199520707,0.0800673791910056
1711795437483516400,7.482516357421875,-9.697845341888069,-1.454338976857066,0.08413733204365707
1711795437493492500,7.492492431640625,-9.700670336180925,-1.4350956394657493,0.08877764126332476
1711795437503468300,7.50246826171875,-9.702963415554166,-1.419247205209732,0.09284658946897834
1711795437513443600,7.512443603515625,-9.704563251966237,-1.4079407982975243,0.0976426737722475
1711795437523419400,7.52241943359375,-9.705443541932105,-1.4013023831963538,0.10538142393128946
1711795437533395200,7.532395263671875,-9.705684364950656,-1.3989549432873725,0.11400545989172532
1711795437543371500,7.54237158203125,-9.70554466421902,-1.3993499339543283,0.120873528163461
1711795437553347300,7.552347412109375,-9.705233114051818,-1.4011837252527475,0.12459532516556791
1711795437563322400,7.562322265625,-9.704729840704799,-1.4046283127486705,0.12500549513534642
1711795437573298400,7.57229833984375,-9.704047119137645,-1.4094170083299278,0.12407104556313715
1711795437583274200,7.582274169921875,-9.70323229562342,-1.4150588136091828,0.12359435882894322
1711795437593250300,7.592250244140625,-9.702349667569994,-1.4209792896993458,0.12494818459069355
1711795437603226400,7.602226318359375,-9.701415601590275,-1.4268682016074656,0.13026410065013916
1711795437613202400,7.612202392578125,-9.700466922563313,-1.4324991932317614,0.1388211723215878
1711795437623177200,7.62217724609375,-9.69950596857667,-1.4379552666805684,0.14919064544355495
1711795437633153500,7.632153564453125,-9.698542091980576,-1.4432145023830234,0.16060825764527542
1711795437643129300,7.64212939453125,-9.697697457849978,-1.447658768440783,0.17127954499172046
1711795437653105400,7.65210546875,-9.697027595764398,-1.451086404801905,0.1799810301025398
1711795437663081500,7.66208154296875,-9.696437813177704,-1.454276579145342,0.18589200771199538
1711795437673056300,7.67205615234375,-9.695784902226924,-1.4581769475847481,0.1893760321691632
1711795437683032300,7.6820322265625,-9.694904027739167,-1.4635862592823803,0.19270621777148916
1711795437693008400,7.69200830078125,-9.6936665948987,-1.4710637555561958,0.1979387663964182
1711795437702984400,7.701984375,-9.692171387904882,-1.4798741078689694,0.20535300644198431
1711795437712960500,7.71196044921875,-9.69049731721282,-1.4896270017288624,0.21368081766851246
1711795437722935600,7.721935546875,-9.68870634214282,-1.5002150312386453,0.22069824041621758
1711795437732911400,7.731911376953125,-9.686790863910316,-1.5118236359678208,0.22551813485333694
1711795437742887400,7.741887451171875,-9.684702951720356,-1.5243438025839626,0.2308490840851329
1711795437752863500,7.751863525390625,-9.682506902980803,-1.5368321127571165,0.23997095003249122
1711795437762839300,7.76183935546875,-9.680528880906104,-1.5473096676297484,0.2521444951680489
1711795437772814300,7.771814453125,-9.67928618736863,-1.5531334053471684,0.2637848832749761
1711795437782790400,7.781790283203125,-9.679113168889284,-1.5529460660815237,0.2711360680216923
1711795437792766200,7.79176611328125,-9.680043143215775,-1.5473479538135229,0.2699348755383864
1711795437802742500,7.801742431640625,-9.681763391137123,-1.5382378879018126,0.26012210471741853
1711795437812718300,7.81171826171875,-9.683774146437644,-1.5282156755812466,0.2438323381683789
1711795437822693400,7.821693359375,-9.685548170372844,-1.5199585732370615,0.22419205561503766
1711795437832669400,7.83166943359375,-9.6867294891119,-1.5152445503272116,0.2041745189808309
1711795437842645500,7.8416455078125,-9.687309919348358,-1.513832783833146,0.18634963355269282
1711795437852621300,7.851621337890625,-9.68751450200975,-1.5141950412742793,0.17221490787938237
1711795437862597400,7.861597412109375,-9.68762380760312,-1.5146186735138296,0.16205049234284086
1711795437872572400,7.871572509765625,-9.687741296502947,-1.5144628984302282,0.1563742185384035
1711795437882548200,7.88154833984375,-9.68773662032783,-1.5147026985354721,0.1543256702444516
1711795437892524500,7.891524658203125,-9.687349666836857,-1.517129341160506,0.15478121372591702
1711795437902500400,7.901500244140625,-9.686212771761417,-1.5240980111293494,0.15747123826118184
1711795437912476400,7.911476318359375,-9.68411959887445,-1.5368793128997087,0.1619013296631165
1711795437922451500,7.921451416015625,-9.681182376378773,-1.5547672901593148,0.16670341444890946
1711795437932427500,7.931427490234375,-9.677839495691657,-1.5750135209828615,0.1707076085889712
1711795437942403300,7.9414033203125,-9.674659112089872,-1.5941795553542673,0.17306025439603254
1711795437952379400,7.95137939453125,-9.672170217883586,-1.6093331392139196,0.17190912986584006
1711795437962355500,7.96135546875,-9.670938045740128,-1.6173936960726976,0.16548061292199417
1711795437972330200,7.971330322265625,-9.671111064219474,-1.617597255820781,0.15286931568998843
1711795437982306600,7.981306640625,-9.672487613269686,-1.6110384818270802,0.1338621160089504
1711795437992282600,7.99128271484375,-9.674650344261526,-1.5997864354506135,0.11050931573850102
1711795438002258400,8.001258544921875,-9.67704805305302,-1.586734061653912,0.08600818568314425
1711795438012234800,8.01123486328125,-9.679178050819038,-1.5747990014493465,0.06246056152691599
1711795438022209500,8.02120947265625,-9.680599023532867,-1.5668028881289064,0.03891762267895974
1711795438032185600,8.031185546875,-9.680998251983523,-1.5647328038565813,0.016254937264253384
1711795438042161700,8.04116162109375,-9.680281628146767,-1.5692428286269307,-0.002911487264097377
1711795438052137700,8.0511376953125,-9.678658410859107,-1.5791177414312958,-0.01838396805753582
1711795438062113500,8.061113525390626,-9.67643547411263,-1.5925111837506294,-0.029737756633781826
1711795438072088600,8.071088623046874,-9.674112584123014,-1.6064368332505226,-0.03595614024157403
1711795438082064600,8.081064697265624,-9.672135731092094,-1.6182868455201387,-0.036425351488788144
1711795438092040400,8.09104052734375,-9.670632925313711,-1.6273174164548516,-0.03293232630783459
1711795438102016800,8.101016845703125,-9.669622871488333,-1.6334117878071963,-0.027351245089736766
1711795438111992600,8.11099267578125,-9.669000940197705,-1.6371726016454398,-0.021623850736126767
1711795438121967600,8.120967529296875,-9.668603465312719,-1.6395802473090588,-0.01648074537676293
1711795438131943700,8.130943603515625,-9.668428108745813,-1.6406589824564755,-0.011043535316985799
1711795438141919500,8.14091943359375,-9.668509941810369,-1.6402071470357478,-0.0038377655171163492
1711795438151895600,8.1508955078125,-9.669394907951354,-1.6349784526020288,0.005703047076109215
1711795438161871600,8.16087158203125,-9.671234982860089,-1.623985641683638,0.01630201068432652
1711795438171846700,8.1708466796875,-9.67430781443417,-1.6054408079504965,0.02667909743223572
1711795438181822500,8.180822509765624,-9.67854209100306,-1.5795561328485608,0.03478610779822338
1711795438191798800,8.190798828125,-9.683619832658767,-1.5480406122528017,0.03829611836330732
1711795438201774600,8.200774658203125,-9.688998018565773,-1.514054171498865,0.036581074056751095
1711795438211750400,8.21075048828125,-9.693992173591255,-1.4818769721239804,0.030676115196128374
1711795438221725700,8.2207255859375,-9.698039403155445,-1.4552866329707204,0.023562184687831902
1711795438231701500,8.230701416015625,-9.700758598986267,-1.4371252455972134,0.018340824177197644
1711795438241677600,8.240677490234376,-9.702024088877439,-1.4285976557485758,0.014846981578913981
1711795438251653600,8.250653564453126,-9.702043962621689,-1.428478851674497,0.013180928654881427
1711795438261629700,8.260629638671874,-9.701227385541797,-1.434007405837625,0.014129422735463594
1711795438271604500,8.2706044921875,-9.700097504729031,-1.4416050213597713,0.016254777434049173
1711795438281580800,8.280580810546875,-9.699174544665217,-1.4477864864736794,0.017713611639966254
1711795438291556600,8.290556640625,-9.698830845794081,-1.4500937405027448,0.01714460583817563
1711795438301532400,8.300532470703125,-9.699280343127251,-1.4471112175606191,0.014515871619648532
1711795438311508700,8.3105087890625,-9.70049497961402,-1.43898724007681,0.009587378266989252
1711795438321483500,8.3204833984375,-9.702316349822283,-1.4266864152997731,0.0028189318761273167
1711795438331459600,8.33045947265625,-9.704549807962774,-1.4114124199308453,-0.0034401601992663927
1711795438341435600,8.340435546875,-9.707008307030797,-1.394383543718606,-0.008145802869016188
1711795438351411500,8.350411376953126,-9.709490186974406,-1.3769630378402768,-0.0126043115104374
1711795438361387500,8.360387451171874,-9.711806062701344,-1.36046110811159,-0.018634974543383576
1711795438371362600,8.370362548828124,-9.713822078698874,-1.34585858226344,-0.026631940672127527
1711795438381338600,8.380338623046875,-9.715434774592518,-1.3339425190202892,-0.03617850287153851
1711795438391314400,8.390314453125,-9.71649392825663,-1.3259478670045732,-0.04457997298932168
1711795438401290800,8.400290771484375,-9.716876205572486,-1.3229516077980399,-0.049980722354585304
1711795438411266600,8.4102666015625,-9.716522569829225,-1.3254527769640088,-0.05238160491727758
1711795438421241600,8.42024169921875,-9.715631758469343,-1.3319663966417312,-0.05241609170876909
1711795438431217700,8.4302177734375,-9.714521166878939,-1.3400747381649911,-0.05163200125952717
1711795438441193500,8.440193359375,-9.713495915484428,-1.347551942177862,-0.04984834184630308
1711795438451169500,8.45016943359375,-9.712762925034761,-1.352906893339753,-0.047528831123863344
1711795438461145600,8.4601455078125,-9.712250299337505,-1.356616269251704,-0.046532888022228144
1711795438471120600,8.47012060546875,-9.711825936445594,-1.3596408777698874,-0.04686094179966021
1711795438481096400,8.480096435546875,-9.711315648835896,-1.3632562917880713,-0.04761412565398496
1711795438491072800,8.49007275390625,-9.71054524898529,-1.3687380842000245,-0.047420936602866275
1711795438501048600,8.500048583984375,-9.709422966957092,-1.3767694149643182,-0.0447293685644865
1711795438511024400,8.5100244140625,-9.707924252831935,-1.3874560825429856,-0.039481777634052556
1711795438520999700,8.519999755859375,-9.706192314472794,-1.3996899795636535,-0.03295715022183722
1711795438530975500,8.5299755859375,-9.704496616470813,-1.4115310778744519,-0.026606927245168478
1711795438540951600,8.53995166015625,-9.70303005104959,-1.421665226136893,-0.0214593009743141
1711795438550927600,8.549927734375,-9.701889064320921,-1.4294715159736573,-0.018681960056844398
1711795438560903400,8.5599033203125,-9.701010527920722,-1.4354229717239737,-0.018580434769485146
1711795438570878500,8.56987841796875,-9.700160633093118,-1.4411146074943244,-0.0212804441259359
1711795438580854500,8.5798544921875,-9.699106740126012,-1.4481114806443451,-0.026240630666445938
1711795438590830600,8.58983056640625,-9.697710901853442,-1.4573431271091102,-0.030725710508495103
1711795438600806400,8.599806396484375,-9.69601578837335,-1.4685811449602246,-0.030445423129235857
1711795438610782700,8.60978271484375,-9.693898065567016,-1.48258658169806,-0.02567306904471479
1711795438620757500,8.619757568359375,-9.691121002069115,-1.5007280953273177,-0.019294633753714152
1711795438630733600,8.629733642578126,-9.68758990533352,-1.5234177737802266,-0.0134959357210726
1711795438640709600,8.639709716796874,-9.683358551374077,-1.5501150804392994,-0.009635214305465342
1711795438650685400,8.649685546875,-9.678692897650599,-1.5789998141400514,-0.007267964584316359
1711795438660661800,8.659661865234375,-9.67429027877748,-1.6057593723803758,-0.005546108656949945
1711795438670636500,8.669636474609375,-9.670814127099513,-1.6265646983914077,-0.00474127338884573
1711795438680612600,8.679612548828125,-9.668727383953332,-1.6389192991822956,-0.006497133192158071
1711795438690588400,8.68958837890625,-9.668299513930082,-1.6414032249525188,-0.012801188072696094
1711795438700564700,8.699564697265625,-9.669529347985982,-1.6340098998308181,-0.024343679037899708
1711795438710540500,8.70954052734375,-9.672073771771789,-1.6185903585113584,-0.03924174006679095
1711795438720515600,8.719515625,-9.675324882522224,-1.5985865581415593,-0.054704956131195644
1711795438730491600,8.72949169921875,-9.678633276417852,-1.5778336929701269,-0.06985721111686434
1711795438740467500,8.739467529296874,-9.68146937662661,-1.5597519467040895,-0.08188975404626689
1711795438750443800,8.74944384765625,-9.68350175923705,-1.5467783372320234,-0.08750451605496927
1711795438760419600,8.759419677734375,-9.684318336316943,-1.5416640629582106,-0.08739370349110104
1711795438770394600,8.76939453125,-9.683886374640464,-1.5446088842384516,-0.08315252225738949
1711795438780370400,8.779370361328125,-9.682380646252632,-1.5543731762751936,-0.0762169188745087
1711795438790346500,8.789346435546875,-9.68001567068696,-1.569317793559283,-0.07013532023876905
1711795438800322600,8.799322509765625,-9.677050391140579,-1.5875949162669478,-0.06796994063211605
1711795438810298600,8.809298583984376,-9.673772976905108,-1.6074373885951936,-0.06817684311475604
1711795438820273700,8.819273681640626,-9.67035469289422,-1.6279241501763462,-0.06696705176646355
1711795438830249500,8.82924951171875,-9.666916535139084,-1.6484803237318992,-0.060218518221168776
1711795438840225800,8.839225830078124,-9.663419340673089,-1.669293686918914,-0.04657636183777358
1711795438850201600,8.84920166015625,-9.659764909818769,-1.6907209442205726,-0.028041439860581885
1711795438860177400,8.859177490234375,-9.655927523612975,-1.7127043741002679,-0.009713152079615974
1711795438870152400,8.86915234375,-9.651888477355241,-1.7353423223659394,0.004848767763510113
1711795438880128500,8.87912841796875,-9.64771089940965,-1.7583710235148666,0.013813244342204415
1711795438890104600,8.8891044921875,-9.643675360283256,-1.780332679954171,0.018100633629597723
1711795438900080600,8.89908056640625,-9.639914546445011,-1.8005638593390583,0.01998253153619589
1711795438910056700,8.909056640625,-9.636544193229078,-1.818504005177319,0.02114436012349324
1711795438920031500,8.919031494140626,-9.633481298527121,-1.834639001289755,0.022760837143112438
1711795438930007800,8.9290078125,-9.630615972223877,-1.8495926786631345,0.02513331787851639
1711795438939983600,8.938983642578124,-9.62785118368566,-1.8639020667836068,0.0271260717314668
1711795438949959400,8.94895947265625,-9.625130818811058,-1.8778886526904999,0.027819513338746035
1711795438959934500,8.9589345703125,-9.62234849461615,-1.8920840590424834,0.028539352045895066
1711795438969910500,8.96891064453125,-9.619501288491486,-1.9064980765812098,0.029002416680112945
1711795438979886600,8.978886474609375,-9.616540100598336,-1.9213614453226326,0.03027711050775833
1711795438989862400,8.9888623046875,-9.613512277209757,-1.9364108381554483,0.03291035878791008
1711795438999838500,8.99883837890625,-9.610521863222122,-1.9511289532072842,0.036679278300795704
1711795439009813500,9.0088134765625,-9.608035891625285,-1.9632430232405662,0.04137765611694194
1711795439019789600,9.01878955078125,-9.606493338358401,-1.9706581218026578,0.04666588501844089
1711795439029765600,9.028765625,-9.606200492891668,-1.9719535684406757,0.05193296153405681
1711795439039741400,9.038741455078124,-9.607297055956721,-1.9664828819446265,0.056323136484134007
1711795439049717500,9.048717529296875,-9.609756724068522,-1.9543147436365484,0.06008472207393497
1711795439059692500,9.058692626953125,-9.61337842169702,-1.9363130768693981,0.06345610276975203
1711795439069668600,9.068668701171875,-9.617868134331703,-1.913783411283791,0.06658634991976432
1711795439079644400,9.07864453125,-9.622889761886,-1.8882267990924417,0.0705362337564351
1711795439089620500,9.088620361328125,-9.628005497464537,-1.86175643305704,0.07584382494552992
1711795439099596500,9.098596435546876,-9.63275649138391,-1.8368157608069478,0.08055600295816548
1711795439109571600,9.108571533203126,-9.636897244450449,-1.8149359374321996,0.08124058768884278
1711795439119547600,9.118547607421876,-9.640255907228589,-1.7971790392063558,0.07744517746125347
1711795439129523500,9.1285234375,-9.642765844222902,-1.7839399106658995,0.07078652328965254
1711795439139499500,9.13849951171875,-9.644501874235273,-1.77481420879364,0.06323248204775155
1711795439149475600,9.1484755859375,-9.64555109102726,-1.769347760081291,0.05596860569173004
1711795439159450600,9.15845068359375,-9.646135028395056,-1.7663539850927887,0.04952323807778302
1711795439169426400,9.168426513671875,-9.646587448337673,-1.7640274418413637,0.044078156380448485
1711795439179402500,9.178402587890625,-9.647183076143264,-1.760873361724615,0.03952845262025948
1711795439189378600,9.188378662109375,-9.648148121783137,-1.7556619106866418,0.03576373207516735
1711795439199354400,9.198354248046876,-9.64955974214673,-1.7479394997410476,0.032943920847505796
1711795439209329700,9.20832958984375,-9.65142436697483,-1.7376522067435085,0.030997515470487996
1711795439219305500,9.218305419921874,-9.653705755910277,-1.7249696891725061,0.028811686730850487
1711795439229281500,9.228281494140624,-9.656272976049781,-1.7105840209454297,0.025995188554993363
1711795439239257600,9.238257568359375,-9.658938395866752,-1.6954989722773433,0.02397848985416349
1711795439249233400,9.2482333984375,-9.661478727999329,-1.6809734571881592,0.023224388117808848
1711795439259208400,9.25820849609375,-9.663849548783897,-1.6673054357111452,0.022068697010353206
1711795439269184500,9.2681845703125,-9.666240827834606,-1.653418949177861,0.019336751295812426
1711795439279160600,9.27816064453125,-9.668839612156152,-1.6382099818691611,0.013677276787481969
1711795439289136400,9.288136474609376,-9.671465869006514,-1.622688441479951,0.0039880407292264865
1711795439299112400,9.298112548828126,-9.673903909808397,-1.6080680877141653,-0.009134321857665781
1711795439309087500,9.30808740234375,-9.675824064216018,-1.5963300113864243,-0.02335394876463106
1711795439319063600,9.3180634765625,-9.676951022419333,-1.5892499899975954,-0.035960962547163945
1711795439329039600,9.32803955078125,-9.677083124366401,-1.5882286841258406,-0.04443541341947857
1711795439339015400,9.338015380859375,-9.676091190719603,-1.5941674265250563,-0.04769551119396928
1711795439348990500,9.347990478515625,-9.674069329503178,-1.6064213434204457,-0.0466835805053357
1711795439358966500,9.357966552734375,-9.671325583752989,-1.622963312898576,-0.04284697518425528
1711795439368942600,9.367942626953125,-9.668277302098273,-1.6411412130154668,-0.038096940246107984
1711795439378918400,9.37791845703125,-9.665402623444795,-1.6580799267262218,-0.033863992551201955
1711795439388894500,9.38789453125,-9.663032387182115,-1.6718953938499093,-0.030845188152720217
1711795439398869500,9.397869384765626,-9.66138111284375,-1.6814618252269922,-0.02808982274668524
1711795439408845300,9.40784521484375,-9.660568042895198,-1.6861648883514104,-0.02552934515851084
1711795439418821600,9.417821533203124,-9.660685531795025,-1.685521768142283,-0.023490747436415403
1711795439428797400,9.42779736328125,-9.661576343154907,-1.6804389119200407,-0.021360199397837277
1711795439438773500,9.4377734375,-9.662850600874423,-1.6731268353410065,-0.018788943545677464
1711795439448748500,9.44774853515625,-9.664100308674573,-1.6659299095742404,-0.015129662986303445
1711795439458724600,9.457724609375,-9.6649262381047,-1.6611749701321123,-0.00919674525638693
1711795439468700400,9.467700439453125,-9.665137835028768,-1.6599674940384923,-0.0010532731255942054
1711795439478676500,9.477676513671875,-9.664736853012442,-1.6622792781122029,0.008815616434713592
1711795439488652500,9.487652587890626,-9.664154084688425,-1.6655584459133446,0.020658021928253584
1711795439498627300,9.49762744140625,-9.663829090517758,-1.6672119122087954,0.03460828756288392
1711795439508603600,9.507603759765624,-9.664000355431437,-1.665861228252202,0.048808235375955696
1711795439518579500,9.517579345703124,-9.664725162574648,-1.661241021105647,0.061276443475997075
1711795439528555500,9.527555419921875,-9.665862057650088,-1.654211560860276,0.0712990211227443
1711795439538531600,9.537531494140625,-9.667094229793548,-1.6466706439614296,0.0784011356123723
1711795439548506600,9.547506591796875,-9.668144031107426,-1.6402238059096037,0.08391753354682586
1711795439558482400,9.557482421875,-9.66871101734042,-1.6365746357522903,0.08962934445552527
1711795439568458500,9.56745849609375,-9.668779406401514,-1.6358109579034148,0.0959866867261473
1711795439578434600,9.5774345703125,-9.668405896914004,-1.6375998871468007,0.10286168706216849
1711795439588409300,9.587409423828126,-9.667865214166044,-1.6402894184917212,0.11054336413857527
1711795439598385700,9.5973857421875,-9.667352003946899,-1.642780504655093,0.1181717583914753
1711795439608361500,9.607361572265624,-9.666965050455927,-1.6446457140050827,0.12376197048081085
1711795439618337300,9.617337158203124,-9.666713706043362,-1.645851874924451,0.1272677957778331
1711795439628313600,9.627313720703125,-9.66654887087047,-1.6466107304677366,0.12994241268141193
1711795439638288400,9.637288330078125,-9.666279990801215,-1.648010368132591,0.13222268737200646
1711795439648264400,9.647264404296875,-9.665612466803193,-1.6517011854745447,0.13490601730500348
1711795439658240500,9.657240478515625,-9.6643142436862,-1.6589837436981498,0.1385011465869844
1711795439668216600,9.667216552734375,-9.662095398592948,-1.6714982112258672,0.1428050817254465
1711795439678192600,9.677192626953126,-9.658769469040632,-1.6902226393096147,0.1473199744671583
1711795439688167700,9.687167724609376,-9.654360420426725,-1.7149116748861968,0.15095382832433096
1711795439698143500,9.6971435546875,-9.649276249030232,-1.7429003365300595,0.15540767506118863
1711795439708119300,9.707119384765624,-9.644190908589959,-1.7699520095847545,0.16504152738498523
1711795439718095600,9.717095703125,-9.6397678314507,-1.7923365676112473,0.1810749810853973
1711795439728071400,9.727071533203125,-9.63658101810813,-1.8076586399056016,0.19762451281547544
1711795439738046500,9.73704638671875,-9.635091071811317,-1.8145817171670495,0.2066437038396485
1711795439748022500,9.7470224609375,-9.635246554633975,-1.813936551131308,0.20505568572953342
1711795439757998600,9.75699853515625,-9.636472881558538,-1.8087046418271957,0.19328869383456185
1711795439767974700,9.766974609375,-9.63779273198545,-1.8037417587228117,0.17276255009109154
1711795439777949700,9.77694970703125,-9.638286652982234,-1.8034335695564745,0.1464200299527496
1711795439787925500,9.786925537109376,-9.637229252883792,-1.811209025863558,0.1171274004376959
1711795439797901300,9.7969013671875,-9.634256374552846,-1.8286852074518798,0.08604358579008839
1711795439807877600,9.806877685546874,-9.629413610696792,-1.8552591799922287,0.05286621009644586
1711795439817853400,9.816853515625,-9.623111880204082,-1.8883109702445566,0.019603514756506773
1711795439827828500,9.826828369140625,-9.616070729520917,-1.923910253022611,-0.011736262254923349
1711795439837804500,9.836804443359375,-9.608999183699488,-1.9585208170242607,-0.04143089784125332
1711795439847780400,9.8467802734375,-9.602682255637646,-1.988602943816036,-0.06586231452811044
1711795439857756700,9.856756591796875,-9.597570611712335,-2.0124292250834404,-0.084548515793588
1711795439867732500,9.866732421875,-9.593802783611416,-2.0294708146467806,-0.1028688291890081
1711795439877707500,9.87670751953125,-9.591276480004192,-2.040239753681421,-0.12335912530096248
1711795439887683300,9.886683349609376,-9.589681904289126,-2.046110545410961,-0.14770108273923396
1711795439897659600,9.89665966796875,-9.58855436156392,-2.0491765088528395,-0.1757349717643112
1711795439907635500,9.906635498046874,-9.58775298205316,-2.050246476171911,-0.2046001787806861
1711795439917611500,9.916611572265625,-9.58724853966236,-2.0497753515288233,-0.2312399100336246
1711795439927586600,9.926586669921875,-9.586860417127609,-2.048801099669188,-0.2547703318933025
1711795439937562400,9.936562255859375,-9.586556465744971,-2.047878139605373,-0.2729660233952105
1711795439947538700,9.94653857421875,-9.58654185269773,-2.0463236036397516,-0.2848846256553195
1711795439957514500,9.956514404296875,-9.587211130261421,-2.042117822512984,-0.29244095931900665
1711795439967490600,9.966490478515626,-9.588910919916628,-2.0330647474855184,-0.29970249302089214
1711795439977465300,9.97646533203125,-9.591760464128852,-2.017887782750279,-0.3108699663864449
1711795439987441700,9.986441650390624,-9.595540567189454,-1.9973365776307879,-0.3265417654339224
1711795439997417500,9.99641748046875,-9.599805823418498,-1.9734743482671677,-0.34569570750873535
1711795440007393500,10.0063935546875,-9.604403088080883,-1.9472107568502426,-0.36632326580006624
1711795440017368600,10.01636865234375,-9.60936860153377,-1.919141431185603,-0.3838129644570872
1711795440027344400,10.026344482421875,-9.614904023829101,-1.88878004906103,-0.395617457084544
1711795440037320700,10.03632080078125,-9.620992403832078,-1.8557235826335847,-0.4039578903306275
1711795440047296500,10.046296630859375,-9.627748892354965,-1.8185257786177098,-0.4120614826135337
1711795440057272300,10.056272216796875,-9.635149524000287,-1.7765660208970306,-0.42200788975153114
1711795440067247400,10.066247314453125,-9.64299322323799,-1.7303053511120379,-0.43487087845597416
1711795440077223400,10.076223388671876,-9.650793667855858,-1.6823092358365654,-0.44989586749989535
1711795440087199500,10.086199462890624,-9.658312957444787,-1.6344709414713083,-0.4646339658938348
1711795440097175600,10.096175537109374,-9.66552420399785,-1.587837931242585,-0.47623756565432995
1711795440107151600,10.106151611328125,-9.67266706148982,-1.5416785298749804,-0.4828312282983213
1711795440117126400,10.11612646484375,-9.679596568492054,-1.4966099924840033,-0.4857443392660469
1711795440127102700,10.126102783203125,-9.686098205471039,-1.4532815767586231,-0.48770672538019716
1711795440137078500,10.13607861328125,-9.69204396213293,-1.4124661667674778,-0.48949591035190965
1711795440147054300,10.146054443359375,-9.697177233368159,-1.3762255173459648,-0.4910630500707775
1711795440157030700,10.15603076171875,-9.701437813422084,-1.3462765154145657,-0.4899273240391165
1711795440167005400,10.16600537109375,-9.704927993625402,-1.322921504920721,-0.48438759089484806
1711795440176981500,10.1759814453125,-9.70783949715793,-1.3048565636590121,-0.4749575357811525
1711795440186957600,10.18595751953125,-9.710404379209875,-1.2897953342579305,-0.463523630031757
1711795440196933600,10.19593359375,-9.712736621549725,-1.2764793410889803,-0.45137083542328327
1711795440206908400,10.205908447265625,-9.715135499385,-1.2624442398652433,-0.4390509040869772
1711795440216884700,10.215884765625,-9.717954648458957,-1.244924949787557,-0.4264954104291275
1711795440226860500,10.225860595703125,-9.72145535005629,-1.2217061328940093,-0.4136742515724152
1711795440236836400,10.23583642578125,-9.725567461550234,-1.1927036180324853,-0.4014706766247749
1711795440246812700,10.245812744140625,-9.7299788482517,-1.1594792476922273,-0.3918018077865243
1711795440256787500,10.255787353515625,-9.734269823443888,-1.1252584136605261,-0.38492125449255105
1711795440266763500,10.265763427734376,-9.737969847005605,-1.0944568865530193,-0.3801277000730857
1711795440276739600,10.275739501953124,-9.740697226142883,-1.070792883175239,-0.3776257271895185
1711795440286715400,10.28571533203125,-9.742164376085997,-1.0574908454664051,-0.37727037441320715
1711795440296691500,10.29569140625,-9.742377142053842,-1.0558742040500044,-0.3763005795329809
1711795440306666500,10.30566650390625,-9.741619017162918,-1.0648324404008687,-0.3706457321090624
1711795440316642600,10.315642578125,-9.74040379615426,-1.0800930648315696,-0.35821594719011335
1711795440326618400,10.325618408203125,-9.738926709339022,-1.0979814074173568,-0.343702451332286
1711795440336594700,10.3355947265625,-9.737318689620494,-1.1151424586419016,-0.3338649479288608
1711795440346569500,10.345569580078125,-9.735924020391701,-1.1282934705074876,-0.33033881962932643
1711795440356545500,10.355545654296876,-9.73505016016662,-1.1352563683226704,-0.3322241219192743
1711795440366521600,10.365521484375,-9.734889416646956,-1.1346057954594493,-0.3390850571973249
1711795440376497400,10.375497314453124,-9.73533189971745,-1.1268250784553586,-0.3520817552840337
1711795440386473500,10.385473388671874,-9.736304544141888,-1.1127532254178076,-0.36951716647055
1711795440396448500,10.395448486328124,-9.73762381004691,-1.0936308840576558,-0.39120632611140604
1711795440406424600,10.405424560546875,-9.738962949696182,-1.0713161033317447,-0.4186461947660893
1711795440416400400,10.415400390625,-9.739967158302663,-1.0484109554972498,-0.45194794119149445
1711795440426376700,10.425376708984375,-9.740266433510184,-1.0284137309987098,-0.4898554643793031
1711795440436352500,10.4353525390625,-9.73965736170113,-1.0143425355482847,-0.5296914714116603
1711795440446327600,10.44532763671875,-9.73807389190197,-1.008335184892267,-0.5688230199690908
1711795440456303600,10.4553037109375,-9.735587335783242,-1.0120610735476017,-0.6037039253447204
1711795440466279400,10.465279541015626,-9.732289463281631,-1.0259608579538761,-0.632712139294669
1711795440476255500,10.47525537109375,-9.728298347818852,-1.0490304756350814,-0.6558391131862997
1711795440486230500,10.48523046875,-9.724003865495323,-1.0785666589818894,-0.6714367144864052
1711795440496206600,10.49520654296875,-9.719470898240804,-1.1119381096426397,-0.6825456991303712
1711795440506182400,10.505182373046875,-9.714723995974659,-1.1469499479215592,-0.692121409792453
1711795440516158500,10.515158447265625,-9.709920979607105,-1.1813565868489444,-0.7015828464251012
1711795440526134500,10.525134521484375,-9.705234867617488,-1.2135877083681523,-0.7113367631983012
1711795440536109600,10.535109619140625,-9.700703653928636,-1.242137072634697,-0.7237585840065032
1711795440546085600,10.545085693359376,-9.69629694340229,-1.2654445907250047,-0.7421988613866269
1711795440556061400,10.5550615234375,-9.691882049569488,-1.2829258868798612,-0.7693539217505604
1711795440566037500,10.56503759765625,-9.687553664976358,-1.2942682418882847,-0.8040900848932564
1711795440576013600,10.575013671875,-9.683462596270441,-1.2996715622365473,-0.8436771951984614
1711795440585988600,10.584988525390624,-9.679557405525445,-1.3003231580130754,-0.8864050877474248
1711795440595964400,10.59496435546875,-9.676332013738154,-1.2979624202311038,-0.9242686621956526
1711795440605940500,10.6049404296875,-9.674317166784405,-1.293889910095185,-0.9506972349159419
1711795440615916500,10.61491650390625,-9.6733199724406,-1.2905407457977534,-0.9652844170644879
1711795440625891300,10.624891357421875,-9.673426939946413,-1.2889673590011894,-0.9663124449379742
1711795440635867600,10.63486767578125,-9.674358667838574,-1.2903475613132118,-0.9550787379357963
1711795440645843500,10.644843505859376,-9.675227851888536,-1.2965471466057001,-0.9377167573116719
1711795440655819500,10.654819580078126,-9.675400285845994,-1.3097007888197898,-0.9174404236108065
1711795440665795600,10.664795654296874,-9.67341466498673,-1.336170278072357,-0.9000480478484183
1711795440675770600,10.6747705078125,-9.669472064840793,-1.3783245354518294,-0.8785864498857409
1711795440685746400,10.684746337890624,-9.665529464694856,-1.4239434002019464,-0.8487131435390561
1711795440695722500,10.694722412109375,-9.661675711876153,-1.469971722535789,-0.813378429981321
1711795440705698600,10.704698486328125,-9.658422263038158,-1.5115566555947064,-0.7748926319815218
1711795440715674400,10.71467431640625,-9.65565864354372,-1.5477119648203252,-0.7370437436457723
1711795440725649700,10.724649658203125,-9.65342109375,-1.5777163502007723,-0.701896442418918
1711795440735625500,10.73462548828125,-9.651512045258283,-1.6025542927287517,-0.6712076549708843
1711795440745601500,10.7446015625,-9.649567925453185,-1.6251887338630855,-0.644194414230436
1711795440755577600,10.75457763671875,-9.647981533044575,-1.6449128405086695,-0.6173273039624094
1711795440765552600,10.764552734375,-9.64651964379847,-1.6629247364088893,-0.5913785141156986
1711795440775528400,10.774528564453124,-9.645090487778186,-1.6797054830789564,-0.5667489536413922
1711795440785504500,10.78450439453125,-9.64340531117022,-1.6963116038344799,-0.5455680357836187
1711795440795480600,10.79448046875,-9.641341364377736,-1.7122883406452833,-0.5319707779878751
1711795440805456400,10.804456298828125,-9.638797525113821,-1.7273384641304612,-0.5294032655874267
1711795440815431700,10.814431640625,-9.6368037209481,-1.7377083208449184,-0.5317553451389074
1711795440825407500,10.824407470703125,-9.636358315268158,-1.7403269789107143,-0.5312633238382637
1711795440835383300,10.83438330078125,-9.63791957323551,-1.7338450695455074,-0.5240894501535222
1711795440845359600,10.844359619140626,-9.640435939970612,-1.7233610849320888,-0.5122549277139827
1711795440855335400,10.85433544921875,-9.643712769684194,-1.709688971801847,-0.4961368462037295
1711795440865310500,10.864310546875,-9.647066171765326,-1.695529367415607,-0.47924865710381415
1711795440875286500,10.87428662109375,-9.649645082342625,-1.6846026074707507,-0.46566422225702553
1711795440885262600,10.8842626953125,-9.650971362510322,-1.6798999827377497,-0.45505237348023797
1711795440895238400,10.89423828125,-9.651196403437853,-1.6819745970547197,-0.4424457706896588
1711795440905213700,10.904213623046875,-9.650816464209557,-1.6892359663598238,-0.4226141485489905
1711795440915189500,10.914189453125,-9.650479779601097,-1.6983406254440545,-0.3927693741770461
1711795440925165300,10.924165283203125,-9.650573887625336,-1.7058960092596709,-0.3559899782363325
1711795440935141600,10.9341416015625,-9.650992405298352,-1.7105976110793648,-0.3202934090962633
1711795440945117400,10.944117431640626,-9.651787355068326,-1.7113855465866625,-0.29076303443573415
1711795440955092500,10.954092529296876,-9.653170333859324,-1.706986727105826,-0.26997071403674777
1711795440965068500,10.964068603515624,-9.655513682115078,-1.6956687758862972,-0.25719653612691906
1711795440975044600,10.974044677734375,-9.658985742139816,-1.676757008536905,-0.2507203441164456
1711795440985020400,10.9840205078125,-9.663564302101731,-1.6505575683973728,-0.24812868365542962
1711795440994996700,10.993996826171875,-9.669170451545714,-1.617637441700697,-0.24653695748457682
1711795441004971800,11.0039716796875,-9.675572719803451,-1.5794703542612492,-0.2428036709740758
1711795441014947600,11.013947509765625,-9.682278354921936,-1.538908334509283,-0.23585878373961894
1711795441024924000,11.023923828125,-9.688555535495281,-1.4997868689544498,-0.23002485342174767
1711795441034899700,11.033899658203126,-9.694112000578642,-1.463816707037389,-0.2276385793397203
1711795441044874800,11.043874755859376,-9.698486562401056,-1.4340345861054955,-0.23082922860719263
1711795441054850800,11.053850830078124,-9.70161433903277,-1.4114343395017086,-0.23857600680906324
1711795441064826600,11.06382666015625,-9.703651982340215,-1.3958615073166787,-0.2471618479172699
1711795441074802700,11.073802734375,-9.704822195163368,-1.3863557200856507,-0.254616292109061
1711795441084778800,11.08377880859375,-9.705502578642964,-1.3810885933376849,-0.2572882329983637
1711795441094753800,11.09375390625,-9.705963181892036,-1.3786539135366678,-0.2529319009523839
1711795441104729600,11.1037294921875,-9.70655530256629,-1.3761571282848715,-0.2436388796892017
1711795441114706000,11.113705810546875,-9.708733231127262,-1.3632887327529488,-0.228754431627132
1711795441124681700,11.123681640625,-9.711106974521279,-1.347222710223496,-0.22309744704505427
1711795441134656800,11.13365673828125,-9.712943542298675,-1.333306120812893,-0.22671887067891655
1711795441144632800,11.1436328125,-9.714335873439907,-1.3215665831804275,-0.23562985208826137
1711795441154608600,11.153608642578124,-9.715373399794101,-1.3110918047867715,-0.25087476749317716
1711795441164584700,11.163584716796874,-9.716603818371892,-1.2978196507595479,-0.27140113043235614
1711795441174560800,11.173560791015625,-9.718385441091655,-1.2789594674669205,-0.29602022431157526
1711795441184535800,11.183535888671875,-9.720494396069645,-1.2554961742930113,-0.32574148190170527
1711795441194511600,11.19351171875,-9.722584061825275,-1.2303944662623107,-0.35759153168145563
1711795441204487700,11.20348779296875,-9.724692432281374,-1.2050102149631827,-0.38560883489791303
1711795441214463700,11.213463623046875,-9.726954531994462,-1.1801125050719827,-0.4050591661034152
1711795441224438800,11.223438720703125,-9.72938146688044,-1.1566577605307102,-0.41432785664293914
1711795441234414800,11.233414794921876,-9.731871530130505,-1.1360808364480732,-0.4127679138498381
1711795441244390700,11.243390625,-9.734359839814902,-1.118127611932531,-0.4030042428676039
1711795441254366700,11.25336669921875,-9.736688575023413,-1.102065096534416,-0.39080242148563266
1711795441264342800,11.2633427734375,-9.738604637777804,-1.0881906657651066,-0.3818509071364999
1711795441274317800,11.27331787109375,-9.739851422968506,-1.0777237053517252,-0.3797191558048129
1711795441284293600,11.283293701171875,-9.740377492669225,-1.0715370526060461,-0.38371275548562406
1711795441294269700,11.293269775390625,-9.740195121839642,-1.070627901871875,-0.39081202956419436
1711795441304245800,11.303245849609375,-9.739346980577707,-1.0756661152347922,-0.3980606489855796
1711795441314221600,11.3132216796875,-9.737947050651908,-1.0860893095716833,-0.4039601918855682
1711795441324196900,11.32319677734375,-9.736270057350396,-1.0990799432437866,-0.409206531573832
1711795441334172700,11.333172607421876,-9.734785956272482,-1.1104024975731968,-0.41391942197252063
1711795441344148700,11.343148681640624,-9.733941906663775,-1.1166656496211886,-0.41691111460179087
1711795441354124800,11.353124755859374,-9.733998020765185,-1.1157794413711875,-0.41796993947234
1711795441364099800,11.363099853515624,-9.735118549227714,-1.1069791720610112,-0.4152725170819089
1711795441374075600,11.37307568359375,-9.737015322759747,-1.0925802790261805,-0.4088858482521027
1711795441384051700,11.3830517578125,-9.739057057720423,-1.0769967793166637,-0.4015390656858682
1711795441394027800,11.39302783203125,-9.740881350538134,-1.0640579488970339,-0.3916505627475679
1711795441404003600,11.403003662109375,-9.742271928113698,-1.0561910149142146,-0.37813568600565195
1711795441413979000,11.412978759765625,-9.743055771967768,-1.053523987662047,-0.36515323564000424
1711795441423954700,11.42295458984375,-9.743490656253694,-1.0529170347448438,-0.3551636834800243
1711795441433930800,11.4329306640625,-9.743958858287334,-1.0511907224088906,-0.34734891807585955
1711795441443906800,11.44290673828125,-9.74459949427843,-1.0469564458400011,-0.3421151821408421
1711795441453881900,11.4528818359375,-9.745192783996462,-1.0420273919399827,-0.34026929854582993
1711795441463857700,11.462857666015625,-9.745278708714245,-1.0404927297186106,-0.34248591514937576
1711795441473833700,11.472833740234375,-9.744493695816397,-1.0466329860392958,-0.34609866228643804
1711795441483809800,11.482809814453125,-9.742710319530964,-1.0628634784154594,-0.3468389592597261
1711795441493785600,11.49278564453125,-9.740148360088467,-1.0875869277182966,-0.34212380383871493
1711795441503761000,11.502760986328125,-9.737294139701127,-1.1157950042665004,-0.33240112245399506
1711795441513736700,11.51273681640625,-9.7348303799361,-1.1409835137978195,-0.3187763190641999
1711795441523712500,11.52271240234375,-9.733368490689992,-1.1578699127994476,-0.3020986857087351
1711795441533688800,11.532688720703124,-9.733164492550491,-1.1639481367345899,-0.28480664678197354
1711795441543664600,11.54266455078125,-9.733992760068178,-1.1605978033933788,-0.2697809270856902
1711795441553639700,11.5526396484375,-9.73525708091557,-1.1524525639258325,-0.2588599940934218
1711795441563615700,11.56261572265625,-9.73631974171102,-1.1448309099409728,-0.25264026106204834
1711795441573591800,11.572591796875,-9.736769823566078,-1.1416252457674592,-0.24977029511630533
1711795441583567600,11.582567626953125,-9.73656348733902,-1.1443890113923698,-0.24514206906007602
1711795441593543000,11.59254296875,-9.735893040731549,-1.1523382168311624,-0.23428258393146095
1711795441603518700,11.602518798828125,-9.734945530748366,-1.1634878257464616,-0.21797453280705958
1711795441613494500,11.61249462890625,-9.733843706986308,-1.176565845441073,-0.19586440780777484
1711795441623470800,11.622470947265626,-9.732406952181458,-1.1923176143895835,-0.17036085924422367
1711795441633445600,11.632445556640626,-9.730448803851008,-1.2116321173209696,-0.14386880196682178
1711795441643421700,11.642421630859374,-9.727990304782987,-1.233885230987519,-0.11881799300629645
1711795441653397800,11.652397705078124,-9.725161218836902,-1.2578275398500263,-0.0974055862138979
1711795441663373800,11.662373779296875,-9.722114106225966,-1.2824109230950473,-0.07937887633703648
1711795441673349600,11.672349609375,-9.718888714438677,-1.3075263673901558,-0.06290567494591232
1711795441683325000,11.682324951171875,-9.715603116896748,-1.3323847681842744,-0.046853502845298496
1711795441693300700,11.69230078125,-9.712425655904411,-1.3557966234318912,-0.031453830703510904
1711795441703276500,11.702276611328125,-9.709573189082741,-1.376313195629418,-0.018301849581900752
1711795441713252900,11.7122529296875,-9.707235101523995,-1.3928082572259008,-0.00744843628857925
1711795441723227600,11.7222275390625,-9.705561615353822,-1.4044384892649948,0.0028557130872824926
1711795441733203700,11.73220361328125,-9.704683663475512,-1.4104301308952272,0.013805332747095962
1711795441743179800,11.7421796875,-9.704604168498516,-1.4107847895517944,0.027006183095287996
1711795441753155600,11.752155517578124,-9.70498703033626,-1.4076860928840935,0.04506978863314725
1711795441763131600,11.762131591796875,-9.705535896390677,-1.4028651024684309,0.07016069670862052
1711795441773106700,11.772106689453125,-9.705802438372373,-1.399195620175451,0.10018960917554795
1711795441783082800,11.782082763671875,-9.705376321914791,-1.399544287482649,0.13165811229180543
1711795441793058600,11.79205859375,-9.704079852363467,-1.405215611117333,0.16306078363023696
1711795441803035000,11.802034912109375,-9.702008891308306,-1.4155702702626585,0.19383248185506088
1711795441813009700,11.812009765625,-9.699470897263287,-1.4287227434329688,0.22226580026019363
1711795441822985700,11.82198583984375,-9.696832365453243,-1.4425534081257878,0.24671295337229965
1711795441832961800,11.8319619140625,-9.694506552854179,-1.4548998256102204,0.2649295232654549
1711795441842937600,11.8419375,-9.6927880584985,-1.4638148073412478,0.27836220161663366
1711795441852913700,11.85191357421875,-9.691768067800998,-1.4681617505043745,0.2907083999053575
1711795441862888700,11.861888671875,-9.69131798594594,-1.468168180245161,0.30531629604836924
1711795441872864800,11.87186474609375,-9.691358902478218,-1.464139655381441,0.3228571586370468
1711795441882840600,11.881840576171875,-9.691668699079752,-1.4574357738286257,0.343254342238605
1711795441892817000,11.89181689453125,-9.692110013106465,-1.4491687346123159,0.36509803485404696
1711795441902791700,11.901791748046875,-9.692578799661993,-1.440485808071494,0.38639874316658823
1711795441912767700,11.911767822265626,-9.693111883625388,-1.4318508123256266,0.40467772903777655
1711795441922743800,11.921743896484376,-9.693789344495535,-1.4236054004192351,0.4173495060190558
1711795441932719600,11.9317197265625,-9.694521750423311,-1.4164892848037183,0.4244854223135858
1711795441942695700,11.94169580078125,-9.695191612508893,-1.4098665056630968,0.43118689271360633
1711795441952670700,11.951670654296874,-9.69584803059101,-1.4028770851671695,0.43915385300479826
1711795441962646800,11.961646728515625,-9.696581605562567,-1.3954274998135865,0.44662451767902817
1711795441972622600,11.97162255859375,-9.697493459710477,-1.3869415571495889,0.4532056496350094
1711795441982598700,11.9815986328125,-9.698788175696134,-1.3760289718605576,0.4587337288741022
1711795441992573200,11.9915732421875,-9.700615975645183,-1.3617055552147328,0.46280412011817096
1711795442002549200,12.00154931640625,-9.702818454125524,-1.3445628433644772,0.4667461722748354
1711795442012525300,12.011525390625,-9.705112702542543,-1.3265918639965355,0.47044900884814556
1711795442022501000,12.021501220703126,-9.707104168620704,-1.3106456684544683,0.47404977328646924
1711795442032477200,12.031477294921874,-9.708523972290754,-1.2983841527745128,0.47869193653650577
1711795442042452200,12.0414521484375,-9.709272744831443,-1.2907979354292154,0.48399541323948647
1711795442052428300,12.05142822265625,-9.709379712337254,-1.2882166867643594,0.4886949326999485
1711795442062404000,12.061404052734375,-9.708933722135423,-1.2900449251048267,0.49272616097740823
1711795442072380400,12.07138037109375,-9.70817793533206,-1.2948508640818297,0.49499775917120276
1711795442082355200,12.081355224609375,-9.7073935069561,-1.3013770509801805,0.49326830503009256
1711795442092331300,12.091331298828125,-9.70677800540626,-1.3088991170480846,0.48542029494345185
1711795442102307300,12.101307373046875,-9.706488082548976,-1.3156990063212812,0.4726649313319474
1711795442112283100,12.111283203125,-9.706562901350855,-1.3201552550777793,0.4584919194748625
1711795442122259200,12.12125927734375,-9.707009476074576,-1.3212795829325914,0.4456083629064262
1711795442132234200,12.131234130859376,-9.707698627382516,-1.3195894378885626,0.4354998240092769
1711795442142210300,12.141210205078124,-9.708564888823032,-1.3161080255135893,0.42662269007060677
1711795442152186000,12.15118603515625,-9.709511814284324,-1.3123299682796001,0.4165938288135454
1711795442162162200,12.161162109375,-9.710361709111929,-1.3099230532683432,0.40418322351910174
1711795442172137200,12.17113720703125,-9.710943308392167,-1.310062607869506,0.38948684537503864
1711795442182113300,12.18111328125,-9.71108651625514,-1.3137225916817783,0.3732561703357845
1711795442192089300,12.19108935546875,-9.7108053612262,-1.3207809857606887,0.3552127467861399
1711795442202065200,12.201065185546875,-9.71000398171544,-1.331332774913311,0.3372907576590776
1711795442212041200,12.211041259765626,-9.708775316703319,-1.344178812482953,0.32132666113413866
1711795442222016300,12.221016357421876,-9.707343822595476,-1.3574291930697857,0.30861265244632957
1711795442231992300,12.230992431640624,-9.705879010739922,-1.3695580222807824,0.30100984929241237
1711795442241968000,12.240968017578124,-9.704562082922457,-1.3792704379998146,0.2991219714528881
1711795442251944200,12.250944091796875,-9.70349649951756,-1.3864223555810749,0.30061259360313414
1711795442261919200,12.260919189453125,-9.702668816521763,-1.3918030257061123,0.3024727431855164
1711795442271895300,12.270895263671875,-9.70209540054798,-1.3953935975439846,0.30431082706656304
1711795442281871400,12.280871337890625,-9.701672791221737,-1.398294871943444,0.3044611222574487
1711795442291847200,12.29084716796875,-9.70125719615817,-1.4015591344363987,0.3027050723703578
1711795442301823200,12.3008232421875,-9.700652216002345,-1.4061125599570572,0.3009613887744956
1711795442311798300,12.31079833984375,-9.699695938190818,-1.412736508141458,0.3007593816626817
1711795442321774300,12.3207744140625,-9.698304776093364,-1.421531809015572,0.3041653541812673
1711795442331750100,12.330750244140624,-9.696376438379287,-1.4330978897772728,0.31128260230794547
1711795442341726200,12.340726318359375,-9.69396411654055,-1.4481224404297768,0.31682737695351243
1711795442351701200,12.350701171875,-9.691147305554152,-1.4662174845688045,0.31976832577623426
1711795442361677000,12.360677001953125,-9.688116559556127,-1.4860083728402853,0.32024555136654526
1711795442371653400,12.3706533203125,-9.685258832037448,-1.5049569650687276,0.31819271048996595
1711795442381629200,12.380629150390625,-9.682977443102002,-1.5205312585584818,0.3135593150682747
1711795442391604200,12.390604248046875,-9.681587450048326,-1.5307332113601266,0.30675668584872035
1711795442401580300,12.400580322265625,-9.681128600364923,-1.535110841922462,0.2992801942219026
1711795442411556400,12.410556396484376,-9.6814530100137,-1.5344871570661662,0.2918899013075046
1711795442421532200,12.4205322265625,-9.682187169507145,-1.5312740402385592,0.28430941958324984
1711795442431508200,12.43050830078125,-9.682821375757456,-1.5286901612251995,0.27651461925487963
1711795442441483300,12.440483154296874,-9.683136433055996,-1.5278385128319263,0.27012484515253454
1711795442451459000,12.450458984375,-9.68316741271615,-1.5283290728278458,0.2661916338894516
1711795442461435400,12.460435302734375,-9.683191962635517,-1.5286727716989814,0.26331985957911236
1711795442471411200,12.4704111328125,-9.683414665475487,-1.5276358298666775,0.2611459678724408
1711795442481386200,12.48038623046875,-9.683803372532129,-1.5255736366398631,0.25877149382606146
1711795442491362300,12.4903623046875,-9.684260468649864,-1.5233973155140876,0.2544589095902629
1711795442501338400,12.50033837890625,-9.684455698961019,-1.523118498572707,0.24861588265048337
1711795442511314200,12.510314208984376,-9.683976975533366,-1.5274639804311096,0.24048593208361416
1711795442521290200,12.520290283203124,-9.682336807110905,-1.539255832772702,0.2311598122684285
1711795442531265300,12.530265380859374,-9.6790272441715,-1.5610380409918725,0.22354709050869567
