time,seconds_elapsed,z,y,x
1711795430071476200,0.070476318359375,-0.023616697639226913,0.26740753650665283,-0.10902196168899536
1711795430081452300,0.080452392578125,-0.03773701563477516,0.26444533467292786,-0.12237310409545898
1711795430091428400,0.090428466796875,-0.04047181457281113,0.2687380611896515,-0.11557058990001678
1711795430101404400,0.100404296875,-0.03433222323656082,0.27642905712127686,-0.08180990815162659
1711795430111380200,0.110380126953125,-0.030683426186442375,0.2638416290283203,-0.03255155310034752
1711795430121356300,0.120356201171875,-0.024206094443798065,0.26438722014427185,0.007861828431487083
1711795430131332400,0.130332275390625,-0.01827896386384964,0.213060662150383,0.028942080214619637
1711795430141307400,0.140307373046875,-0.006958912592381239,0.16168434917926788,0.04024156183004379
1711795430151283200,0.150283203125,-0.02623700350522995,0.09116010367870331,0.03873367980122566
1711795430161259500,0.160259521484375,-0.03601904213428497,-0.003537318669259548,0.010521701537072659
1711795430171235300,0.1702353515625,-0.0370696559548378,-0.10597554594278336,-0.009267449378967285
1711795430181211100,0.180211181640625,-0.06730614602565765,-0.1408192366361618,-0.02349378727376461
1711795430191187500,0.1901875,-0.0797649472951889,-0.1604994684457779,-0.029907478019595146
1711795430201162200,0.200162353515625,-0.08936619013547897,-0.14384207129478455,-0.037974633276462555
1711795430211138300,0.21013818359375,-0.1031951829791069,-0.1114489808678627,-0.04100051894783974
1711795430221114400,0.2201142578125,-0.10726556181907654,-0.08087296038866043,-0.04557636007666588
1711795430231090400,0.23009033203125,-0.1076437309384346,-0.06163135915994644,-0.053868912160396576
1711795430241066500,0.24006640625,-0.10044066607952118,-0.07893998920917511,-0.05598164349794388
1711795430251042300,0.250042236328125,-0.1004587709903717,-0.08980515599250793,-0.04998021200299263
1711795430261018400,0.260018310546875,-0.09570848941802979,-0.09044989943504333,-0.03023926541209221
1711795430270993200,0.2699931640625,-0.0855083167552948,-0.05323648452758789,-0.00972040742635727
1711795430280969500,0.279969482421875,-0.06872478872537613,0.0132677610963583,0.004796970169991255
1711795430290945300,0.2899453125,-0.052935704588890076,0.07113318890333176,0.018721839413046837
1711795430300921300,0.29992138671875,-0.039945103228092194,0.08487986028194427,0.0346037819981575
1711795430310897400,0.3098974609375,-0.030551601201295853,0.07962943613529205,0.03892236202955246
1711795430320873200,0.319873291015625,-0.022520562633872032,0.04510686174035072,0.02823682874441147
1711795430330849500,0.329849609375,-0.01564081758260727,0.011965952813625336,0.011345196515321732
1711795430340824300,0.33982421875,0.0037201184313744307,-0.01241772435605526,-0.013761489652097225
1711795430350800400,0.34980029296875,0.022816581651568413,-0.01530911773443222,-0.04145596921443939
1711795430360776400,0.3597763671875,0.025393441319465637,-0.0013023726642131805,-0.06271030008792877
1711795430370752300,0.369752197265625,0.01788252778351307,0.006623194552958012,-0.0679766982793808
1711795430380728300,0.379728271484375,0.002046275418251753,0.013034816831350327,-0.04690909758210182
1711795430390704400,0.389704345703125,-0.007975466549396515,0.009248865768313408,-0.016940012574195862
1711795430400679400,0.399679443359375,-0.0008222083561122417,0.004205182194709778,0.0029429702553898096
1711795430410655200,0.4096552734375,0.015101363882422447,0.02401510439813137,0.0008398720528930426
1711795430420631300,0.41963134765625,0.029441505670547485,0.0309402234852314,-0.0010877347085624933
1711795430430607400,0.429607421875,0.04674060270190239,0.026390213519334793,-0.0030273147858679295
1711795430440583200,0.439583251953125,0.05821901559829712,0.02005719020962715,-0.014799986034631729
1711795430450559500,0.4495595703125,0.07869686186313629,0.011278079822659492,-0.035587556660175323
1711795430460535300,0.459535400390625,0.11277305334806442,0.030708180740475655,-0.06386548280715942
1711795430470510300,0.46951025390625,0.13568635284900665,0.051227837800979614,-0.0734454095363617
1711795430480486400,0.479486328125,0.15579406917095184,0.017151471227407455,-0.050943922251462936
1711795430490462200,0.489462158203125,0.024224845692515373,-0.1419449746608734,-0.07495205104351044
1711795430500438500,0.4994384765625,0.042073048651218414,-0.16602058708667755,-0.11881688982248306
1711795430510414300,0.509414306640625,0.034022580832242966,-0.13699427247047424,-0.15069492161273956
1711795430520390400,0.519390380859375,0.013449124991893768,-0.13112616539001465,-0.14937882125377655
1711795430530366500,0.529366455078125,0.0020215006079524755,-0.11412400752305984,-0.0965941846370697
1711795430540341500,0.539341552734375,0.010479409247636795,-0.061797816306352615,-0.05018944293260574
1711795430550317300,0.5493173828125,0.020537635311484337,-0.02155931666493416,-0.006957815494388342
1711795430560293400,0.55929345703125,0.03396271541714668,-0.016602806746959686,0.02725553885102272
1711795430570269400,0.56926953125,0.04627956822514534,-0.012788628228008747,0.03225482627749443
1711795430580245200,0.579245361328125,0.04926201328635216,0.002014881931245327,0.012107616290450096
1711795430590221300,0.58922119140625,0.05247991159558296,0.004894291050732136,-0.029771123081445694
1711795430600196400,0.5991962890625,0.04723057523369789,-0.017627399414777756,-0.06690007448196411
1711795430610172200,0.609172119140625,0.03253259137272835,-0.05994050204753876,-0.08516962826251984
1711795430620148500,0.6191484375,0.02639107219874859,-0.10191822052001953,-0.07724969834089279
1711795430630124300,0.629124267578125,0.024147093296051025,-0.09565845876932144,-0.05113020911812782
1711795430640100400,0.639100341796875,0.02492891065776348,-0.055371321737766266,-0.015974611043930054
1711795430650076400,0.649076416015625,0.018076865002512932,0.004995615221560001,0.006014309823513031
1711795430660052200,0.65905224609375,0.015063246712088585,0.07210609316825867,0.02011139690876007
1711795430670027300,0.66902734375,0.02338881976902485,0.1106761246919632,0.012475848197937012
1711795430680003300,0.67900341796875,0.034628741443157196,0.12720102071762085,-0.009514855220913887
1711795430689979400,0.6889794921875,0.0445287749171257,0.12875178456306458,-0.0409979447722435
1711795430699955200,0.698955078125,0.05366773530840874,0.07133250683546066,-0.047999490052461624
1711795430709931300,0.70893115234375,0.05828272923827171,-0.002340117935091257,-0.050232816487550735
1711795430719907300,0.7189072265625,0.06091411039233208,-0.050586216151714325,-0.050507426261901855
1711795430729882400,0.72888232421875,0.06068933382630348,-0.05982392281293869,-0.04892417788505554
1711795430739858400,0.7388583984375,0.05329158157110214,-0.03975863754749298,-0.05163722485303879
1711795430749834200,0.748834228515625,0.04725871980190277,-0.02074100449681282,-0.05927383899688721
1711795430759810600,0.758810546875,0.0504726804792881,-0.009889086708426476,-0.044989537447690964
1711795430769786400,0.768786376953125,0.05377500131726265,-0.0208064503967762,-0.024552172049880028
1711795430779762200,0.77876220703125,0.05238611623644829,-0.020335957407951355,-0.010474741458892822
1711795430789738500,0.788738525390625,0.04672077298164368,-0.0022448375821113586,-0.012313388288021088
1711795430799713300,0.79871337890625,0.043444033712148666,0.010010115802288055,-0.03780738636851311
1711795430809689300,0.808689453125,0.04605633020401001,0.001177741214632988,-0.07861713320016861
1711795430819665400,0.81866552734375,0.05694926902651787,-0.016718674451112747,-0.13244716823101044
1711795430829641200,0.82864111328125,0.07173754274845123,-0.03923090919852257,-0.18861404061317444
1711795430839617300,0.8386171875,0.08046912401914597,-0.06562429666519165,-0.22570396959781647
1711795430849593300,0.84859326171875,0.08984531462192535,-0.08843614161014557,-0.23213575780391693
1711795430859568400,0.858568359375,0.09535808861255646,-0.09498631954193115,-0.2178254872560501
1711795430869544200,0.868544189453125,0.09380706399679184,-0.09316551685333252,-0.18107466399669647
1711795430879520500,0.8785205078125,0.08986420929431915,-0.08584823459386826,-0.12034469842910767
1711795430889496300,0.888496337890625,0.0771619975566864,-0.08796411752700806,-0.049180768430233
1711795430899472100,0.89847216796875,0.06458204984664917,-0.07774286717176437,0.003538190620020032
1711795430909448400,0.908448486328125,0.05199888348579407,-0.06644200533628464,0.023708440363407135
1711795430919424300,0.91842431640625,0.04607738181948662,-0.06024738401174545,0.01144289318472147
1711795430929399300,0.9283994140625,0.04308958351612091,-0.0688302218914032,-0.022805090993642807
1711795430939375400,0.938375244140625,0.03358263149857521,-0.08981859683990479,-0.07907342165708542
1711795430949351400,0.948351318359375,0.032770365476608276,-0.12259385734796524,-0.12699808180332184
1711795430959327200,0.9583271484375,0.034757595509290695,-0.15617361664772034,-0.14267157018184662
1711795430969303300,0.96830322265625,0.03797123208642006,-0.15142838656902313,-0.13658864796161652
1711795430979280000,0.97827978515625,0.03881224989891052,-0.10692917555570602,-0.11230949312448502
1711795430989255000,0.9882548828125,0.041646916419267654,-0.03904120251536369,-0.08312683552503586
1711795430999231000,0.99823095703125,0.04681561142206192,0.03151661902666092,-0.04244803637266159
1711795431009206800,1.008206787109375,0.05625438690185547,0.07012473046779633,0.0005878489464521408
1711795431019182800,1.018182861328125,0.05817824974656105,0.07324738800525665,0.03640918433666229
1711795431029159000,1.028158935546875,0.06514029204845428,0.05054553598165512,0.066224604845047
1711795431039135000,1.038135009765625,0.06455328315496445,0.02192649058997631,0.07962643355131149
1711795431049110800,1.04811083984375,0.056241024285554886,0.014383086934685707,0.06446558982133865
1711795431059085800,1.0580859375,0.04855013266205788,0.015537559986114502,0.024208534508943558
1711795431069062000,1.068061767578125,0.041318584233522415,0.010822964832186699,-0.03818560019135475
1711795431079038000,1.078037841796875,0.028582792729139328,0.01315566897392273,-0.12351541221141815
1711795431089013800,1.088013671875,0.02703123539686203,0.00013281218707561493,-0.19199007749557495
1711795431098990000,1.097989990234375,0.023231977596879005,-0.02497939020395279,-0.21865354478359222
1711795431108966000,1.1079658203125,0.017861446365714073,-0.01902216672897339,-0.20691300928592682
1711795431118941000,1.11794091796875,0.0074979932978749275,0.0017198305577039719,-0.15045061707496643
1711795431128917000,1.1279169921875,-0.0037956740707159042,0.012403367087244987,-0.07399126142263412
1711795431138892800,1.137892822265625,-0.020544251427054405,0.040147565305233,0.001740775303915143
1711795431148868900,1.147868896484375,-0.0314650759100914,0.082672119140625,0.044768139719963074
1711795431158845000,1.157844970703125,-0.034663014113903046,0.11916260421276093,0.058060333132743835
1711795431168820700,1.16782080078125,-0.0333695150911808,0.1221378892660141,0.03863949328660965
1711795431178796800,1.177796875,-0.029719067737460136,0.08715769648551941,0.00526328943669796
1711795431188771800,1.187771728515625,-0.022604433819651604,0.03994064778089523,-0.03187289461493492
1711795431198748000,1.197747802734375,-0.022906772792339325,-0.00465846061706543,-0.06130436807870865
1711795431208723700,1.2077236328125,-0.02504768781363964,-0.018185988068580627,-0.0895671620965004
1711795431218700000,1.217699951171875,-0.03271656110882759,-0.008857137523591518,-0.12239475548267365
1711795431228675800,1.22767578125,-0.035742975771427155,-0.0008335663005709648,-0.1565449982881546
1711795431238652000,1.23765185546875,-0.03913236781954765,-0.026501398533582687,-0.18306195735931396
1711795431248627000,1.247626953125,-0.04146663099527359,-0.06630420684814453,-0.18558557331562042
1711795431258602800,1.257602783203125,-0.03577892854809761,-0.07570354640483856,-0.1565694957971573
1711795431268578800,1.267578857421875,-0.03402923047542572,-0.06596223264932632,-0.09555807709693909
1711795431278555000,1.277554931640625,-0.03738420456647873,-0.03663831204175949,-0.030405310913920403
1711795431288531000,1.287531005859375,-0.04726879671216011,0.00485639926046133,0.02437511272728443
1711795431298507000,1.297507080078125,-0.044156674295663834,0.007708023302257061,0.06579229235649109
1711795431308482800,1.30748291015625,-0.03973555937409401,-0.0144968805834651,0.07598793506622314
1711795431318457900,1.317457763671875,-0.030824048444628716,-0.05781451612710953,0.0675099790096283
1711795431328434000,1.327433837890625,-0.017699992284178734,-0.0986543521285057,0.03972548618912697
1711795431338410000,1.337409912109375,-0.006146435625851154,-0.1282014399766922,0.002980879507958889
1711795431348385800,1.3473857421875,0.0031306860037148,-0.15732869505882263,-0.030230335891246796
1711795431358361900,1.35736181640625,0.008863168768584728,-0.17184235155582428,-0.05332358554005623
1711795431368338000,1.367337890625,0.0047363340854644775,-0.1841786503791809,-0.0405084528028965
1711795431378312700,1.377312744140625,-0.0011309606488794088,-0.1536725014448166,-0.0008190922671929002
1711795431388289000,1.3872890625,-0.015460365451872349,-0.09262700378894806,0.04887895658612251
1711795431398264800,1.397264892578125,-0.03193064406514168,-0.05171630531549454,0.09974794834852219
1711795431408241000,1.407240966796875,-0.04338383674621582,-0.023606372997164726,0.12281225621700287
1711795431418217000,1.417217041015625,-0.051172029227018356,-0.01734679564833641,0.11773840337991714
1711795431428192800,1.42719287109375,-0.05871729552745819,-0.022063519805669785,0.08174791187047958
1711795431438167800,1.437167724609375,-0.05991537496447563,-0.0371931791305542,0.03216801583766937
1711795431448144000,1.447143798828125,-0.06874427944421768,-0.04828657954931259,-0.004981485661119223
1711795431458120000,1.457119873046875,-0.0794227123260498,-0.06299176067113876,-0.02119073085486889
1711795431468095700,1.467095703125,-0.09218724817037582,-0.0677737295627594,-0.016132855787873268
1711795431478071800,1.47707177734375,-0.10822168737649918,-0.049769796431064606,0.0077437227591872215
1711795431488047900,1.4870478515625,-0.12607260048389435,-0.010259674862027168,0.04005292430520058
1711795431498024000,1.49702392578125,-0.14062994718551636,0.038201313465833664,0.061621204018592834
1711795431507999000,1.5069990234375,-0.1564754992723465,0.08139166235923767,0.06734433770179749
1711795431517974800,1.516974853515625,-0.16723021864891052,0.11645125597715378,0.05934273824095726
1711795431527950800,1.526950927734375,-0.17172455787658691,0.12764452397823334,0.04678753390908241
1711795431537927000,1.536927001953125,-0.1754651516675949,0.114969402551651,0.03875671699643135
1711795431547902700,1.54690283203125,-0.17719221115112305,0.08775243163108826,0.04812438786029816
1711795431557879000,1.556879150390625,-0.1751900464296341,0.05980592221021652,0.0663503110408783
1711795431567853800,1.566853759765625,-0.17758023738861084,0.052053458988666534,0.10118978470563889
1711795431577830000,1.576829833984375,-0.17981675267219543,0.0558929368853569,0.1416783481836319
1711795431587806000,1.586805908203125,-0.17481639981269836,0.04277980327606201,0.20122317969799042
1711795431597782000,1.596781982421875,-0.16923104226589203,0.027508504688739777,0.2701982855796814
1711795431607757800,1.6067578125,-0.17040203511714935,0.018159477040171623,0.33156657218933105
1711795431617734000,1.61673388671875,-0.18052251636981964,0.033147815614938736,0.35506221652030945
1711795431627709000,1.626708984375,-0.196857288479805,0.049805887043476105,0.33361124992370605
1711795431637684700,1.636684814453125,-0.20526032149791718,0.019105609506368637,0.2697208821773529
1711795431647661000,1.6466611328125,-0.2031915783882141,-0.03899204730987549,0.18498015403747559
1711795431657636900,1.656636962890625,-0.19894389808177948,-0.09871730208396912,0.10982734709978104
1711795431667612700,1.66661279296875,-0.1911538988351822,-0.14260593056678772,0.05436142906546593
1711795431677589000,1.676589111328125,-0.17838740348815918,-0.12533870339393616,0.02444426715373993
1711795431687564800,1.686564697265625,-0.164912611246109,-0.06245746463537216,0.015259556472301483
1711795431697539800,1.696539794921875,-0.14767378568649292,0.004320756532251835,0.02098744735121727
1711795431707516000,1.706515869140625,-0.1285509616136551,0.06929336488246918,0.052795711904764175
1711795431717492000,1.716491943359375,-0.11145398765802383,0.11747168749570847,0.09986566752195358
1711795431727467800,1.7264677734375,-0.09141556173563004,0.13319367170333862,0.20222212374210358
1711795431737443800,1.73644384765625,-0.07343338429927826,0.1506103128194809,0.32579344511032104
1711795431747420000,1.746419921875,-0.05797906219959259,0.17409993708133698,0.4170096218585968
1711795431757394700,1.756394775390625,-0.042998965829610825,0.2256971150636673,0.44714584946632385
1711795431767371000,1.76637109375,-0.025743814185261726,0.27261829376220703,0.4249262809753418
1711795431777346800,1.776346923828125,-0.00679412018507719,0.2806333005428314,0.3784109055995941
1711795431787323000,1.786322998046875,0.014203574508428574,0.2514610290527344,0.33520856499671936
1711795431797299000,1.796298828125,0.03312233090400696,0.19406312704086304,0.2978983521461487
1711795431807274800,1.806274658203125,0.0440271720290184,0.1351502686738968,0.2966615855693817
1711795431817249800,1.816249755859375,0.05315840244293213,0.09076293557882309,0.3202287554740906
1711795431827225900,1.826225830078125,0.0479857437312603,0.05048368126153946,0.340218186378479
1711795431837202000,1.836201904296875,0.037593238055706024,0.032741278409957886,0.3450561761856079
1711795431847178000,1.846177978515625,0.014670344069600105,0.016617432236671448,0.3185689151287079
1711795431857153800,1.85615380859375,-0.004743499681353569,0.00194452702999115,0.2640732526779175
1711795431867129900,1.8661298828125,-0.02123778872191906,-0.010145425796508789,0.19141075015068054
1711795431877105000,1.87610498046875,-0.0350760892033577,-0.03077901154756546,0.1194600909948349
1711795431887081000,1.8860810546875,-0.046139661222696304,-0.06467785686254501,0.05908782407641411
1711795431897056800,1.896056884765625,-0.05444417521357536,-0.06460323184728622,-0.006232372485101223
1711795431907033000,1.906033203125,-0.07994154095649719,-0.031269513070583344,-0.05857813358306885
1711795431917009000,1.9160087890625,-0.11285194754600525,0.019888006150722504,-0.08632843941450119
1711795431926984700,1.925984619140625,-0.146081805229187,0.06734500080347061,-0.08108840882778168
1711795431936961000,1.9359609375,-0.16482453048229218,0.10276642441749573,-0.06322521716356277
1711795431946935800,1.945935791015625,-0.17158417403697968,0.12088790535926819,-0.05000181868672371
1711795431956911900,1.955911865234375,-0.16709807515144348,0.12210230529308319,-0.047211892902851105
1711795431966888000,1.965887939453125,-0.153572678565979,0.0932283103466034,-0.059782546013593674
1711795431976863700,1.97586376953125,-0.12984125316143036,0.05972850322723389,-0.0934569239616394
1711795431986839300,1.98583935546875,-0.09986923635005951,0.03629215806722641,-0.13301393389701843
1711795431996815000,1.995815185546875,-0.06517626345157623,0.01030569989234209,-0.17032085359096527
1711795432006790100,2.0057900390625,-0.032390352338552475,-0.0039616534486413,-0.2008499950170517
1711795432016766200,2.01576611328125,-0.0021443357691168785,0.0026447419077157974,-0.23413090407848358
1711795432026742300,2.0257421875,0.008186066523194313,0.025680284947156906,-0.2676372230052948
1711795432036718000,2.035718017578125,0.02121216058731079,0.035706739872694016,-0.27402082085609436
1711795432046694400,2.0456943359375,0.025943800806999207,0.044057611376047134,-0.26124483346939087
1711795432056670200,2.055670166015625,0.028653079643845558,0.04200440272688866,-0.22879523038864136
1711795432066645200,2.065645263671875,0.03211172670125961,0.014561327174305916,-0.18827150762081146
1711795432076621300,2.075621337890625,0.04303278774023056,-0.026875797659158707,-0.13457858562469482
1711795432086597000,2.08559716796875,0.05193653330206871,-0.06922484934329987,-0.08395321667194366
1711795432096573200,2.0955732421875,0.06466701626777649,-0.09979429841041565,-0.05214362591505051
1711795432106549200,2.10554931640625,0.0731545090675354,-0.10165558010339737,-0.03999961167573929
1711795432116525000,2.115525146484375,0.07918761670589447,-0.08141135424375534,-0.0557822585105896
1711795432126500000,2.1255,0.0722559466958046,-0.061996638774871826,-0.08897722512483597
1711795432136476200,2.13547607421875,0.060899361968040466,-0.049756795167922974,-0.13622812926769257
1711795432146452200,2.1454521484375,0.03637883812189102,-0.05757610499858856,-0.1891014724969864
1711795432156428000,2.155427978515625,0.022104818373918533,-0.0738409012556076,-0.2241215854883194
1711795432166404400,2.165404296875,0.005860067903995514,-0.0856110081076622,-0.23636680841445923
1711795432176380200,2.175380126953125,-0.006501704454421997,-0.07968254387378693,-0.22695834934711456
1711795432186355200,2.185355224609375,-0.016534632071852684,-0.06092536449432373,-0.20823393762111664
1711795432196331300,2.195331298828125,-0.01657301001250744,-0.03363678604364395,-0.17548859119415283
1711795432206307000,2.20530712890625,-0.011781983077526093,0.00026472099125385284,-0.1398557722568512
1711795432216283400,2.215283447265625,-0.0008696694858372211,0.009511995129287243,-0.11027403920888901
1711795432226259200,2.22525927734375,0.01966170407831669,0.030493441969156265,-0.0899442657828331
1711795432236235300,2.2352353515625,0.03980261832475662,0.04139667749404907,-0.07958505302667618
1711795432246210000,2.2452099609375,0.05253412574529648,0.030463069677352905,-0.08697745949029922
1711795432256186400,2.255186279296875,0.06951205432415009,-0.004189108032733202,-0.11410565674304962
1711795432266162200,2.265162109375,0.08955047279596329,-0.044745590537786484,-0.13999292254447937
1711795432276138200,2.27513818359375,0.09798765182495117,-0.07071010023355484,-0.15354987978935242
1711795432286114300,2.2851142578125,0.09981217980384827,-0.08342961966991425,-0.16098888218402863
1711795432296090000,2.295090087890625,0.10309131443500519,-0.09878325462341309,-0.14782367646694183
1711795432306066200,2.305066162109375,0.10204868763685226,-0.09560131281614304,-0.1378791779279709
1711795432316041200,2.315041259765625,0.09942413121461868,-0.07473443448543549,-0.12696334719657898
1711795432326017000,2.32501708984375,0.10277625173330307,-0.05568511039018631,-0.10390277951955795
1711795432335993300,2.334993408203125,0.10913136601448059,-0.024474404752254486,-0.08069577068090439
1711795432345969200,2.34496923828125,0.11862287670373917,0.007312818430364132,-0.07002688199281693
1711795432355945200,2.3549453125,0.12925684452056885,0.04062919691205025,-0.06167369708418846
1711795432365921300,2.36492138671875,0.14006128907203674,0.06379123777151108,-0.049470026046037674
1711795432375896300,2.374896240234375,0.14321792125701904,0.05241319164633751,-0.024430720135569572
1711795432385872100,2.3848720703125,0.1510838270187378,0.025906484574079514,-0.0041283778846263885
1711795432395848200,2.39484814453125,0.15372630953788757,0.005234234966337681,0.0048470464535057545
1711795432405824300,2.40482421875,0.14776748418807983,-0.019850611686706543,-0.0016446751542389393
1711795432415800300,2.41480029296875,0.1466805785894394,-0.027276521548628807,-0.01893693022429943
1711795432425776000,2.424776123046875,0.15582534670829773,-0.02963847853243351,-0.03745415434241295
1711795432435751200,2.434751220703125,0.16184385120868683,-0.04000809043645859,-0.05051576346158981
1711795432445727200,2.444727294921875,0.16811558604240417,-0.04028346389532089,-0.04748455435037613
1711795432455703300,2.454703369140625,0.17692743241786957,-0.021951191127300262,-0.029624907299876213
1711795432465679000,2.46467919921875,0.18686768412590027,-0.011186692863702774,0.01173771359026432
1711795432475655400,2.474655517578125,0.18790128827095032,-0.01365925557911396,0.05511954054236412
1711795432485631200,2.48463134765625,0.19070640206336975,-0.014555408619344234,0.09062746167182922
1711795432495606300,2.494606201171875,0.18415525555610657,-0.018297716975212097,0.12021483480930328
1711795432505582300,2.504582275390625,0.18136586248874664,-0.016299812123179436,0.1468837410211563
1711795432515558100,2.51455810546875,0.1836245059967041,-0.0005126139149069786,0.182610422372818
1711795432525534200,2.5245341796875,0.19057349860668182,0.04483116418123245,0.21918867528438568
1711795432535510300,2.53451025390625,0.19541457295417786,0.12480377405881882,0.244267538189888
1711795432545486300,2.544486328125,0.2007795125246048,0.18863816559314728,0.26244840025901794
1711795432555461000,2.554461181640625,0.20470605790615082,0.2406860589981079,0.27575671672821045
1711795432565437400,2.5644375,0.20323972404003143,0.26818159222602844,0.28199437260627747
1711795432575413200,2.574413330078125,0.2022045999765396,0.2450871765613556,0.2980059087276459
1711795432585389000,2.58438916015625,0.19688680768013,0.19968082010746002,0.33705613017082214
1711795432595365400,2.594365478515625,0.1891137659549713,0.17248232662677765,0.36879071593284607
1711795432605341200,2.604341064453125,0.1885576993227005,0.19356444478034973,0.3879138231277466
1711795432615316200,2.614316162109375,0.19480547308921814,0.231988787651062,0.3735135793685913
1711795432625292300,2.624292236328125,0.1987416297197342,0.2510194778442383,0.32578814029693604
1711795432635268000,2.63426806640625,0.19906359910964966,0.23497840762138367,0.2424059510231018
1711795432645244200,2.644244140625,0.18919737637043,0.19019149243831635,0.14125509560108185
1711795432655220200,2.65422021484375,0.1711059957742691,0.12297766655683517,0.040103666484355927
1711795432665196300,2.6641962890625,0.14330658316612244,0.040407683700323105,-0.03313193470239639
1711795432675171000,2.674171142578125,0.11777281761169434,-0.0286867693066597,-0.05755183473229408
1711795432685147400,2.6841474609375,0.10129397362470627,-0.06892286986112595,-0.044385965913534164
1711795432695123200,2.694123291015625,0.0793503075838089,-0.07399031519889832,-0.014170940034091473
1711795432705099000,2.70409912109375,0.04634495824575424,-0.07659648358821869,0.018095385283231735
1711795432715075300,2.714075439453125,0.002204904332756996,-0.09374523907899857,0.048735011368989944
1711795432725051100,2.724051025390625,-0.039216041564941406,-0.11755895614624023,0.0697324350476265
1711795432735026200,2.734026123046875,-0.07901990413665771,-0.11178355664014816,0.08356712013483047
1711795432745002200,2.744002197265625,-0.1187521368265152,-0.060444463044404984,0.09020211547613144
1711795432754978300,2.753978271484375,-0.14413660764694214,0.015349330380558968,0.09326626360416412
1711795432764954400,2.763954345703125,-0.1530075967311859,0.07464753836393356,0.09340528398752213
1711795432774930200,2.77393017578125,-0.14801675081253052,0.09296556562185287,0.0996411144733429
1711795432784906200,2.78390625,-0.13388122618198395,0.08468793332576752,0.10701114684343338
1711795432794881000,2.793881103515625,-0.10927689075469971,0.047163866460323334,0.11201535910367966
1711795432804857300,2.803857421875,-0.08290813118219376,0.000934855081140995,0.11568226665258408
1711795432814833200,2.813833251953125,-0.05629114806652069,-0.03202393651008606,0.11057325452566147
1711795432824809200,2.823809326171875,-0.029581507667899132,-0.04356794059276581,0.11051493138074875
1711795432834785300,2.833785400390625,0.004607352428138256,-0.04245037958025932,0.09666858613491058
1711795432844761000,2.843760986328125,0.04255020618438721,-0.050233203917741776,0.08220043033361435
1711795432854736400,2.853736328125,0.07404052466154099,-0.05851356312632561,0.05961509048938751
1711795432864712200,2.863712158203125,0.08946528285741806,-0.0788891464471817,0.025766311213374138
1711795432874688300,2.873688232421875,0.09203889220952988,-0.11700355261564255,-0.017334062606096268
1711795432884664300,2.883664306640625,0.09223490208387375,-0.15795683860778809,-0.06066529080271721
1711795432894640000,2.89364013671875,0.07664133608341217,-0.16336534917354584,-0.10556840896606445
1711795432904616200,2.9036162109375,0.05031172186136246,-0.13168013095855713,-0.1461067795753479
1711795432914591200,2.91359130859375,0.024751456454396248,-0.08336754143238068,-0.17119991779327393
1711795432924567300,2.9235673828125,0.008018283173441887,-0.02339475229382515,-0.1947057843208313
1711795432934543000,2.933543212890625,-0.009072542190551758,0.027790650725364685,-0.2093556970357895
1711795432944519200,2.943519287109375,-0.022734027355909348,0.04315096512436867,-0.21389025449752808
1711795432954495200,2.9534951171875,-0.037192899733781815,0.02929691970348358,-0.20972983539104462
1711795432964471000,2.963470947265625,-0.047535285353660583,0.0002543507143855095,-0.19530880451202393
1711795432974446300,2.9734462890625,-0.06278128921985626,-0.013347411528229713,-0.17888838052749634
1711795432984422000,2.983421875,-0.08446608483791351,-0.006515338085591793,-0.1548597365617752
1711795432994398000,2.99339794921875,-0.10213856399059296,0.014568662270903587,-0.13270370662212372
1711795433004373800,3.003373779296875,-0.10632532089948654,0.04628291726112366,-0.10710807144641876
1711795433014349800,3.013349853515625,-0.10379452258348465,0.06079324334859848,-0.08041737973690033
1711795433024326000,3.023325927734375,-0.09272216260433197,0.0597895011305809,-0.05598820373415947
1711795433034301000,3.033301025390625,-0.07723534852266312,0.031049828976392746,-0.04118906334042549
1711795433044277000,3.043277099609375,-0.06582982838153839,-0.021656528115272522,-0.03630748763680458
1711795433054252800,3.053252685546875,-0.06346728652715683,-0.07843505591154099,-0.04517403990030289
1711795433064228900,3.063228759765625,-0.07126928120851517,-0.12356338649988174,-0.05659074708819389
1711795433074205000,3.073204833984375,-0.08189322054386139,-0.13963493704795837,-0.07387319207191467
1711795433084180700,3.0831806640625,-0.09052745252847672,-0.1315719485282898,-0.09118959307670593
1711795433094155800,3.09315576171875,-0.09645405411720276,-0.1261846274137497,-0.11703051626682281
1711795433104131800,3.1031318359375,-0.0973787009716034,-0.1309482306241989,-0.1438666582107544
1711795433114108000,3.11310791015625,-0.09005364775657654,-0.14254066348075867,-0.1675868034362793
1711795433124084000,3.123083984375,-0.07928834855556488,-0.14865848422050476,-0.1888447105884552
1711795433134060000,3.13306005859375,-0.06403080374002457,-0.16002507507801056,-0.19381780922412872
1711795433144035800,3.143035888671875,-0.05015280842781067,-0.13992834091186523,-0.18597878515720367
1711795433154011000,3.153010986328125,-0.04353811964392662,-0.1108817309141159,-0.15069064497947693
1711795433163987000,3.162987060546875,-0.04502389580011368,-0.07896800339221954,-0.1048392727971077
1711795433173962800,3.172962646484375,-0.048993319272994995,-0.04304616153240204,-0.05462754890322685
1711795433183939000,3.18293896484375,-0.05595801770687103,-0.022043142467737198,-0.026440119370818138
1711795433193915000,3.192914794921875,-0.0665278360247612,-0.023823201656341553,-0.027076348662376404
1711795433203890000,3.202889892578125,-0.06981204450130463,-0.06559381633996964,-0.03727945312857628
1711795433213866000,3.212865966796875,-0.06805196404457092,-0.12689189612865448,-0.0532330721616745
1711795433223841800,3.222841796875,-0.06170271709561348,-0.16628722846508026,-0.06197782978415489
1711795433233817900,3.23281787109375,-0.05863051861524582,-0.1830187737941742,-0.05894528701901436
1711795433243794000,3.2427939453125,-0.05825900658965111,-0.18301904201507568,-0.04156523197889328
1711795433253770000,3.25277001953125,-0.062104370445013046,-0.1594826877117157,-0.014707563444972038
1711795433263744800,3.262744873046875,-0.07194022089242935,-0.10543276369571686,0.003466913476586342
1711795433273721000,3.27272119140625,-0.0754624605178833,-0.06348364800214767,0.01864231377840042
1711795433283697000,3.28269677734375,-0.07902870327234268,-0.05081658437848091,0.022690318524837494
1711795433293672700,3.292672607421875,-0.08292410522699356,-0.051025643944740295,0.014373799785971642
1711795433303649000,3.30264892578125,-0.08209399878978729,-0.06599101424217224,0.002790645696222782
1711795433313624800,3.312624755859375,-0.08860892802476883,-0.08398353308439255,-0.0001586703583598137
1711795433323600000,3.322599853515625,-0.10063709318637848,-0.09490036219358444,0.0055700549855828285
1711795433333576000,3.332575927734375,-0.12119646370410919,-0.10166143625974655,0.018548527732491493
1711795433343552000,3.342552001953125,-0.13905243575572968,-0.09593483805656433,0.03274876996874809
1711795433353527800,3.35252783203125,-0.15609338879585266,-0.07816582173109055,0.04982175678014755
1711795433363503900,3.36250390625,-0.174894779920578,-0.06184038147330284,0.06051168590784073
1711795433373480000,3.37247998046875,-0.18624092638492584,-0.05690827965736389,0.05652618035674095
1711795433383454700,3.382454833984375,-0.19200506806373596,-0.04548252001404762,0.048429638147354126
1711795433393431000,3.39243115234375,-0.19827532768249512,-0.0290709026157856,0.037516314536333084
1711795433403406800,3.40240673828125,-0.20370152592658997,-0.023502232506871223,0.027051957324147224
1711795433413382700,3.412382568359375,-0.20481513440608978,-0.023793373256921768,0.025207094848155975
1711795433423359000,3.42235888671875,-0.19956977665424347,-0.01579403690993786,0.04128033667802811
1711795433433334800,3.432334716796875,-0.1911851465702057,0.013252726756036282,0.0777880996465683
1711795433443309800,3.442309814453125,-0.1730700582265854,0.04817795380949974,0.1182713434100151
1711795433453286000,3.452285888671875,-0.1628311425447464,0.09182195365428925,0.16380655765533447
1711795433463262000,3.462261962890625,-0.15979062020778656,0.14043369889259338,0.18190939724445343
1711795433473238000,3.472238037109375,-0.15817680954933167,0.18485166132450104,0.17269939184188843
1711795433483213800,3.4822138671875,-0.14986535906791687,0.2123037874698639,0.13463349640369415
1711795433493190000,3.49218994140625,-0.1279800534248352,0.20090557634830475,0.08917928487062454
1711795433503164700,3.50216455078125,-0.10202301293611526,0.16357392072677612,0.054892152547836304
1711795433513141000,3.51214111328125,-0.08157046884298325,0.13381032645702362,0.03592516481876373
1711795433523116800,3.52211669921875,-0.06282234191894531,0.11797278374433517,0.04944257065653801
1711795433533092900,3.5320927734375,-0.029855914413928986,0.11071628332138062,0.09595362097024918
1711795433543069000,3.54206884765625,0.017329972237348557,0.14021745324134827,0.15184883773326874
1711795433553044700,3.552044677734375,0.05940020829439163,0.1813126653432846,0.21442446112632751
1711795433563020000,3.56202001953125,0.10801221430301666,0.23466350138187408,0.27482709288597107
1711795433572995800,3.571995849609375,0.14480294287204742,0.25582337379455566,0.3321450352668762
1711795433582972000,3.581971923828125,0.15050983428955078,0.193277969956398,0.38541144132614136
1711795433592948000,3.591947998046875,0.1144634261727333,0.08245006203651428,0.40590375661849976
1711795433602923800,3.601923828125,0.05766938626766205,-0.0009694593027234077,0.3680889904499054
1711795433612899800,3.61189990234375,0.02399459108710289,-0.019324205815792084,0.29166415333747864
1711795433622875000,3.621875,0.026024451479315758,0.000043898820877075195,0.20312951505184174
1711795433632851000,3.631850830078125,0.05873176082968712,-0.024721477180719376,0.13485680520534515
1711795433642826800,3.64182666015625,0.09152139723300934,-0.08443088084459305,0.10407545417547226
1711795433652803000,3.651802978515625,0.1279854029417038,-0.13361406326293945,0.08831682056188583
1711795433662779000,3.66177880859375,0.15939898788928986,-0.1325240284204483,0.08627151697874069
1711795433672754000,3.67175390625,0.17193424701690674,-0.08491386473178864,0.0976523607969284
1711795433682730000,3.68172998046875,0.16293783485889435,-0.004500519018620253,0.09177236258983612
1711795433692705800,3.691705810546875,0.14122804999351501,0.06348590552806854,0.06458867341279984
1711795433702681900,3.701681884765625,0.10773107409477234,0.08997157216072083,0.02322525903582573
1711795433712658000,3.711657958984375,0.06788800656795502,0.05710258334875107,-0.015063094906508923
1711795433722633700,3.7216337890625,0.030139029026031494,-0.000516238622367382,-0.04824821278452873
1711795433732608800,3.73160888671875,0.0006448067724704742,-0.047119468450546265,-0.07894247770309448
1711795433742584800,3.741584716796875,-0.02893732115626335,-0.05860514938831329,-0.09392143040895462
1711795433752561000,3.751560791015625,-0.05757249519228935,-0.03287576884031296,-0.08868946135044098
1711795433762536700,3.76153662109375,-0.0712054893374443,0.05212301015853882,-0.0727270096540451
1711795433772513000,3.771512939453125,-0.07705266773700714,0.16500265896320343,-0.052805814892053604
1711795433782488800,3.78148876953125,-0.07867293059825897,0.24766266345977783,-0.030978545546531677
1711795433792464000,3.7914638671875,-0.06306682527065277,0.2720842659473419,-0.014651281759142876
1711795433802440000,3.80143994140625,-0.04575761407613754,0.26317811012268066,0.0032116048969328403
1711795433812415700,3.811415771484375,-0.031099561601877213,0.2514619529247284,0.024482715874910355
1711795433822392000,3.82139208984375,-0.024029402062296867,0.2571331560611725,0.03890639916062355
1711795433832367900,3.831367919921875,-0.023815307766199112,0.28079119324684143,0.04869186878204346
1711795433842343000,3.841343017578125,-0.03212809935212135,0.30919647216796875,0.042849957942962646
1711795433852318700,3.851318603515625,-0.047205835580825806,0.2923184931278229,0.014982599765062332
1711795433862295000,3.861294921875,-0.059656113386154175,0.24847567081451416,-0.03935254365205765
1711795433872270800,3.871270751953125,-0.0705321878194809,0.17181195318698883,-0.09178055077791214
1711795433882247000,3.881246826171875,-0.07451920956373215,0.06534489244222641,-0.11854559183120728
1711795433892223000,3.891222900390625,-0.07693097740411758,-0.024092555046081543,-0.11070564389228821
1711795433902197800,3.90119775390625,-0.07848493754863739,-0.0648152157664299,-0.07980018854141235
1711795433912174000,3.911174072265625,-0.06645781546831131,-0.04450739920139313,-0.04691743105649948
1711795433922150000,3.92114990234375,-0.04968363046646118,0.006654854863882065,-0.023534610867500305
1711795433932125700,3.931125732421875,-0.03234756365418434,0.04850847274065018,-0.019688516855239868
1711795433942102000,3.94110205078125,-0.016768870875239372,0.07479041069746017,-0.03179604560136795
1711795433952077800,3.951077880859375,-0.008532179519534111,0.07375342398881912,-0.06221915781497955
1711795433962052900,3.961052978515625,-0.00020207860507071018,0.04074167460203171,-0.09695157408714294
1711795433972029000,3.97102880859375,0.018335064873099327,0.018841903656721115,-0.12198945879936218
1711795433982005500,3.981005615234375,0.04116368293762207,-0.00021381303668022156,-0.12823404371738434
1711795433991981600,3.990981689453125,0.06170164421200752,-0.029044706374406815,-0.11193820089101791
1711795434001957400,4.000957275390625,0.07734212279319763,-0.0432920828461647,-0.07859302312135696
1711795434011933400,4.010933349609375,0.09125617891550064,-0.06602397561073303,-0.035026103258132935
1711795434021908500,4.020908447265625,0.1041988730430603,-0.08367540687322617,0.014882063493132591
1711795434031884500,4.030884521484375,0.11768299341201782,-0.07528351992368698,0.05986844748258591
1711795434041860600,4.040860595703125,0.1290578991174698,-0.054477568715810776,0.08985777199268341
1711795434051836400,4.05083642578125,0.14900919795036316,-0.016158275306224823,0.10502283275127411
1711795434061812500,4.0608125,0.16742601990699768,0.031015364453196526,0.11351032555103302
1711795434071787500,4.07078759765625,0.18629981577396393,0.06907419860363007,0.10836372524499893
1711795434081763600,4.080763671875,0.20605728030204773,0.10069338232278824,0.09623995423316956
1711795434091739400,4.090739501953125,0.21326325833797455,0.08645132929086685,0.07907002419233322
1711795434101715500,4.100715576171875,0.21788357198238373,0.020081624388694763,0.0702672079205513
1711795434111691500,4.11069140625,0.21671631932258606,-0.05688300356268883,0.07447491586208344
1711795434121667600,4.12066748046875,0.21361106634140015,-0.09365273267030716,0.083969347178936
1711795434131642600,4.130642578125,0.2028936892747879,-0.09817670285701752,0.0961698666214943
1711795434141618400,4.140618408203125,0.19477078318595886,-0.07561653107404709,0.09318552911281586
1711795434151594500,4.150594482421875,0.1890287548303604,-0.040433917194604874,0.07978827506303787
1711795434161570600,4.160570556640625,0.18249894678592682,-0.021058354526758194,0.05697137489914894
1711795434171546400,4.17054638671875,0.17983978986740112,-0.039966799318790436,0.02759590744972229
1711795434181522700,4.180522705078125,0.18288883566856384,-0.06314828246831894,-0.008747984655201435
1711795434191497500,4.19049755859375,0.18468303978443146,-0.0919007807970047,-0.04568394273519516
1711795434201473500,4.2004736328125,0.18353815376758575,-0.11467640101909637,-0.06500118225812912
1711795434211449600,4.21044970703125,0.17818811535835266,-0.1323622614145279,-0.08345112204551697
1711795434221425400,4.22042529296875,0.18028348684310913,-0.1310783475637436,-0.091844342648983
1711795434231401500,4.2304013671875,0.17484858632087708,-0.12381588667631149,-0.09165854007005692
1711795434241377500,4.24037744140625,0.170188307762146,-0.12850117683410645,-0.07533522695302963
1711795434251352600,4.2503525390625,0.1617821604013443,-0.11254800856113434,-0.07269590348005295
1711795434261328400,4.260328369140625,0.14869539439678192,-0.05127745866775513,-0.1169656291604042
1711795434271304700,4.2703046875,0.13891160488128662,-0.03222743421792984,-0.19110572338104248
1711795434281280500,4.280280517578125,0.13261961936950684,-0.0855812057852745,-0.28119751811027527
1711795434291256300,4.29025634765625,0.11360995471477509,-0.17109526693820953,-0.34762927889823914
1711795434301231600,4.300231689453125,0.09239441156387329,-0.2337610423564911,-0.36588525772094727
1711795434311207400,4.31020751953125,0.07172884792089462,-0.2514205873012543,-0.3271450102329254
1711795434321183500,4.32018359375,0.0636267140507698,-0.22532960772514343,-0.238525390625
1711795434331159600,4.33015966796875,0.0582805834710598,-0.1781350076198578,-0.1292126178741455
1711795434341135600,4.340135498046875,0.04921172186732292,-0.1319102644920349,-0.024080336093902588
1711795434351111400,4.350111328125,0.050546493381261826,-0.07958384603261948,0.05710715055465698
1711795434361086700,4.360086669921875,0.04523668438196182,-0.02068164572119713,0.10566803067922592
1711795434371062500,4.3700625,0.0446590855717659,0.008538475260138512,0.11555394530296326
1711795434381038300,4.380038330078125,0.03557424247264862,-0.014739150181412697,0.11128063499927521
1711795434391014700,4.3900146484375,0.030867623165249825,-0.08215180039405823,0.10566168278455734
1711795434400990500,4.399990478515625,0.020475436002016068,-0.13006553053855896,0.10315565019845963
1711795434410965500,4.409965576171875,0.0052115777507424355,-0.14921313524246216,0.12417633831501007
1711795434420941600,4.419941650390625,-0.015383179299533367,-0.16470474004745483,0.17649732530117035
1711795434430917400,4.42991748046875,-0.03558947145938873,-0.12405452877283096,0.24043871462345123
1711795434440893400,4.4398935546875,-0.05537622421979904,-0.03603758290410042,0.29432111978530884
1711795434450869500,4.449869384765625,-0.06784110516309738,0.044766176491975784,0.33001476526260376
1711795434460845600,4.459845458984375,-0.08998794853687286,0.08952992409467697,0.32363542914390564
1711795434470820400,4.4698203125,-0.11763639003038406,0.13025879859924316,0.27127742767333984
1711795434480796700,4.479796630859375,-0.1453031748533249,0.1542256474494934,0.17123469710350037
1711795434490772500,4.4897724609375,-0.16749760508537292,0.1152501180768013,0.054181843996047974
1711795434500748300,4.499748291015625,-0.1778586357831955,0.023928992450237274,-0.05450522154569626
1711795434510724600,4.509724609375,-0.175479456782341,-0.10220558941364288,-0.13284249603748322
1711795434520700400,4.519700439453125,-0.157377690076828,-0.2104543000459671,-0.17916364967823029
1711795434530675500,4.529675537109375,-0.12822428345680237,-0.2617103159427643,-0.19374598562717438
1711795434540651500,4.539651611328125,-0.10246911644935608,-0.27603012323379517,-0.1661689430475235
1711795434550627600,4.549627685546875,-0.0703330859541893,-0.2379770576953888,-0.11195049434900284
1711795434560603600,4.559603759765625,-0.04033071547746658,-0.16292518377304077,-0.049170464277267456
1711795434570579500,4.569579345703125,-0.01524929329752922,-0.11415470391511917,0.022395020350813866
1711795434580555500,4.579555419921875,0.00041062734089791775,-0.10769147425889969,0.09670307487249374
1711795434590530300,4.5895302734375,0.0045742131769657135,-0.09651391953229904,0.14683547616004944
1711795434600506600,4.599506591796875,0.011939184740185738,-0.08218025416135788,0.16860681772232056
1711795434610482400,4.609482421875,0.016502745449543,-0.08467131108045578,0.1569036990404129
1711795434620458500,4.61945849609375,0.018628215417265892,-0.0748964473605156,0.11762978881597519
1711795434630434600,4.6294345703125,0.023429691791534424,-0.07350347191095352,0.06809605658054352
1711795434640409300,4.639409423828125,0.016261527314782143,-0.08106391876935959,0.023940585553646088
1711795434650385700,4.6493857421875,0.0019901483319699764,-0.06549661606550217,-0.018956413492560387
1711795434660361500,4.659361572265625,-0.019121795892715454,-0.017870508134365082,-0.05864523723721504
1711795434670337500,4.669337646484375,-0.045447930693626404,0.049525823444128036,-0.09729928523302078
1711795434680313600,4.679313720703125,-0.06123941019177437,0.1254434883594513,-0.14506788551807404
1711795434690289400,4.689289306640625,-0.06530606001615524,0.1914857178926468,-0.1989506036043167
1711795434700264400,4.699264404296875,-0.06203942745923996,0.21704301238059998,-0.2563001811504364
1711795434710240500,4.709240478515625,-0.060802362859249115,0.20632460713386536,-0.3088357150554657
1711795434720216600,4.719216552734375,-0.06324154883623123,0.15750327706336975,-0.34175825119018555
1711795434730192400,4.7291923828125,-0.07148268818855286,0.07213367521762848,-0.3438779413700104
1711795434740168400,4.73916845703125,-0.0897623598575592,-0.030109604820609093,-0.32007142901420593
1711795434750143500,4.7491435546875,-0.09805944561958313,-0.12362844496965408,-0.28350046277046204
1711795434760119600,4.75911962890625,-0.10469071567058563,-0.19826938211917877,-0.2324007898569107
1711795434770095600,4.769095703125,-0.10719422250986099,-0.22778326272964478,-0.1778302639722824
1711795434780071400,4.779071533203125,-0.10001726448535919,-0.1897253692150116,-0.11672509461641312
1711795434790047500,4.789047607421875,-0.10251922160387039,-0.09848490357398987,-0.05486314743757248
1711795434800023600,4.7990234375,-0.1110173687338829,-0.015619317069649696,0.009481219574809074
1711795434809998600,4.80899853515625,-0.11462589353322983,0.06574305891990662,0.07606024295091629
1711795434819974400,4.818974365234375,-0.1209743395447731,0.1249414011836052,0.14198920130729675
1711795434829950500,4.828950439453125,-0.1282235085964203,0.1337381899356842,0.185851588845253
1711795434839926500,4.838926513671875,-0.13261373341083527,0.10660430788993835,0.1896308809518814
1711795434849902300,4.84890234375,-0.13533656299114227,0.033241719007492065,0.15921039879322052
1711795434859877600,4.858877685546875,-0.13202838599681854,-0.06011112779378891,0.10474102944135666
1711795434869853400,4.868853515625,-0.1301393210887909,-0.10838225483894348,0.03853248804807663
1711795434879829500,4.87882958984375,-0.11396674811840057,-0.14355647563934326,-0.019794734194874763
1711795434889805600,4.8888056640625,-0.09595879912376404,-0.15904605388641357,-0.0565495528280735
1711795434899781400,4.898781494140625,-0.0813303217291832,-0.1607970893383026,-0.06039915233850479
1711795434909757700,4.9087578125,-0.07978459447622299,-0.18920162320137024,-0.04640330746769905
1711795434919732500,4.918732421875,-0.08620361238718033,-0.20293527841567993,-0.02731350064277649
1711795434929708500,4.92870849609375,-0.10031653195619583,-0.19449353218078613,-0.016544610261917114
1711795434939684400,4.938684326171875,-0.12339388579130173,-0.16897912323474884,-0.006353758275508881
1711795434949660400,4.948660400390625,-0.1409268081188202,-0.1196105107665062,0.006834481377154589
1711795434959636500,4.958636474609375,-0.14913013577461243,-0.07299986481666565,0.04528972879052162
1711795434969611500,4.968611572265625,-0.1554679274559021,-0.029476981610059738,0.10357065498828888
1711795434979587600,4.978587646484375,-0.15585915744304657,0.0094144931063056,0.17151322960853577
1711795434989564200,4.988564208984375,-0.15399304032325745,0.051499031484127045,0.22971300780773163
1711795434999540000,4.9985400390625,-0.1573811173439026,0.1001933366060257,0.26623082160949707
1711795435009516000,5.00851611328125,-0.16405951976776123,0.13835278153419495,0.26850762963294983
1711795435019492000,5.0184921875,-0.16638284921646118,0.1377096325159073,0.24113033711910248
1711795435029467100,5.028467041015625,-0.16338595747947693,0.1063540130853653,0.19566884636878967
1711795435039443000,5.03844287109375,-0.15940746665000916,0.07110121846199036,0.14008201658725739
1711795435049419300,5.048419189453125,-0.14516735076904297,0.035771872848272324,0.09989558160305023
1711795435059395000,5.05839501953125,-0.1293787956237793,0.01823895238339901,0.0787476897239685
1711795435069371000,5.068370849609375,-0.12145960330963135,0.0063700005412101746,0.06721806526184082
1711795435079347200,5.07834716796875,-0.11662569642066956,-0.03283705562353134,0.06689582020044327
1711795435089322000,5.088322021484375,-0.12067504227161407,-0.05324849113821983,0.07613241672515869
1711795435099298000,5.098298095703125,-0.1310800015926361,-0.06008322909474373,0.0956677719950676
1711795435109274000,5.108274169921875,-0.13460126519203186,-0.05130628123879433,0.125743567943573
1711795435119250200,5.118250244140625,-0.13401830196380615,-0.025499988347291946,0.15759897232055664
1711795435129226200,5.128226318359375,-0.1261395364999771,0.0007915850728750229,0.1971975415945053
1711795435139201300,5.138201171875,-0.121008962392807,0.01919695734977722,0.22552265226840973
1711795435149177000,5.148177001953125,-0.11500047892332077,0.022877013310790062,0.23361343145370483
1711795435159153000,5.15815283203125,-0.10960996896028519,-0.001071462407708168,0.22845035791397095
1711795435169129200,5.168129150390625,-0.12271074950695038,-0.004209598992019892,0.18133486807346344
1711795435179105000,5.17810498046875,-0.14904995262622833,0.008049731142818928,0.09440396726131439
1711795435189081000,5.1880810546875,-0.16337455809116364,0.006188735365867615,-0.013664845377206802
1711795435199056100,5.19805615234375,-0.16623106598854065,-0.032676372677087784,-0.10808029770851135
1711795435209032000,5.208031982421875,-0.16087093949317932,-0.073838971555233,-0.1697709709405899
1711795435219008300,5.21800830078125,-0.15346574783325195,-0.08193391561508179,-0.18703384697437286
1711795435228984000,5.227984130859375,-0.1445745825767517,-0.054584287106990814,-0.16782653331756592
1711795435238960000,5.237960205078125,-0.13593396544456482,-0.018530409783124924,-0.11492870002985
1711795435248935000,5.247934814453125,-0.12447218596935272,-0.007631889544427395,-0.061842139810323715
1711795435258911200,5.2579111328125,-0.11815144121646881,-0.03408799692988396,-0.014292730018496513
1711795435268887000,5.267886962890625,-0.11563849449157715,-0.07060408592224121,0.017204031348228455
1711795435278863000,5.277863037109375,-0.10183107107877731,-0.11908932775259018,0.04906342551112175
1711795435288839200,5.287839111328125,-0.08665023744106293,-0.17024557292461395,0.09650915116071701
1711795435298815000,5.29781494140625,-0.0872822105884552,-0.1972508281469345,0.14587563276290894
1711795435308790300,5.307790283203125,-0.09896261990070343,-0.18194615840911865,0.17881113290786743
1711795435318766000,5.31776611328125,-0.11144192516803741,-0.13381831347942352,0.18750634789466858
1711795435328742100,5.3277421875,-0.12461841106414795,-0.050677340477705,0.1642097532749176
1711795435338718200,5.33771826171875,-0.1311226487159729,0.02781107649207115,0.12396594136953354
1711795435348694000,5.347694091796875,-0.12720516324043274,0.03627217188477516,0.09184599667787552
1711795435358669000,5.3576689453125,-0.1205640435218811,0.0002814149484038353,0.0821337178349495
1711795435368645000,5.36764501953125,-0.10894141346216202,-0.04391154646873474,0.11517147719860077
1711795435378621200,5.37762109375,-0.09748582541942596,-0.06729969382286072,0.17868706583976746
1711795435388597000,5.387596923828125,-0.08365148305892944,-0.02810625731945038,0.24253635108470917
1711795435398573000,5.397572998046875,-0.06265885382890701,0.05768214911222458,0.2795793116092682
1711795435408549000,5.407549072265625,-0.037349820137023926,0.14601264894008636,0.2796303331851959
1711795435418524000,5.41752392578125,-0.023160496726632118,0.20012648403644562,0.22590558230876923
1711795435428500200,5.427500244140625,-0.024091284722089767,0.19997824728488922,0.13707540929317474
1711795435438476000,5.43747607421875,-0.03608402982354164,0.15607844293117523,0.038842037320137024
1711795435448452000,5.4474521484375,-0.05448438227176666,0.07909896224737167,-0.04204850643873215
1711795435458428200,5.45742822265625,-0.07646584510803223,0.024704962968826294,-0.08451233804225922
1711795435468403200,5.4674033203125,-0.09738197177648544,0.009453237988054752,-0.08755664527416229
1711795435478379000,5.47737890625,-0.11155078560113907,0.029491662979125977,-0.06396849453449249
1711795435488355000,5.48735498046875,-0.1266343891620636,0.08432897925376892,-0.025741703808307648
1711795435498331100,5.4973310546875,-0.13649527728557587,0.1355772614479065,-0.003947459161281586
1711795435508307000,5.507306884765625,-0.14509440958499908,0.16345469653606415,-0.022040531039237976
1711795435518282200,5.5172822265625,-0.14770643413066864,0.16381210088729858,-0.08158881217241287
1711795435528258000,5.527258056640625,-0.13997957110404968,0.12182164192199707,-0.16407893598079681
1711795435538234000,5.537234130859375,-0.12722036242485046,0.06651497632265091,-0.2506122291088104
1711795435548210200,5.547210205078125,-0.10711685568094254,0.016629764810204506,-0.3124327063560486
1711795435558186000,5.55718603515625,-0.06931301206350327,-0.014765974134206772,-0.33848854899406433
1711795435568162300,5.567162353515625,-0.033664505928754807,-0.027872923761606216,-0.32678571343421936
1711795435578137000,5.57713720703125,-0.002083409344777465,-0.01988770253956318,-0.2752828299999237
1711795435588113200,5.587113037109375,0.019782492890954018,0.010003139264881611,-0.19219571352005005
1711795435598089000,5.5970888671875,0.03669649735093117,0.044410377740859985,-0.08473636209964752
1711795435608065000,5.60706494140625,0.034135542809963226,0.06306202709674835,0.026507694274187088
1711795435618041000,5.617041015625,0.025283195078372955,0.07805615663528442,0.11880673468112946
1711795435628015900,5.627015869140625,0.021217284724116325,0.08785325288772583,0.17887060344219208
1711795435637992200,5.6369921875,0.022009840235114098,0.08850306272506714,0.20507504045963287
1711795435647968000,5.646968017578125,0.03588305041193962,0.06955155730247498,0.1985519826412201
1711795435657944300,5.6569443359375,0.050891295075416565,0.04145494103431702,0.16110260784626007
1711795435667920100,5.666920166015625,0.06540348380804062,-0.00005318131297826767,0.10086812824010849
1711795435677896000,5.67689599609375,0.07771740853786469,-0.047783419489860535,0.039805036038160324
1711795435687871000,5.68687109375,0.0817084014415741,-0.08776790648698807,-0.00672726659104228
1711795435697847000,5.696846923828125,0.08110280334949493,-0.10036306083202362,-0.032827842980623245
1711795435707823000,5.706822998046875,0.07556452602148056,-0.09109967947006226,-0.04557168856263161
1711795435717799200,5.716799072265625,0.07455705851316452,-0.05991672724485397,-0.04380282014608383
1711795435727775000,5.72677490234375,0.07479962706565857,-0.019054604694247246,-0.02638605609536171
1711795435737750000,5.73675,0.07169011980295181,0.029467925429344177,0.003655466251075268
1711795435747726000,5.74672607421875,0.07123467326164246,0.055343810468912125,0.0210855882614851
1711795435757702100,5.7567021484375,0.07875117659568787,0.07623258978128433,0.019490888342261314
1711795435767678000,5.766677978515625,0.08818895369768143,0.08163058757781982,-0.002682280261069536
1711795435777654300,5.776654296875,0.10040886700153351,0.06315118074417114,-0.024203551933169365
1711795435787629000,5.786629150390625,0.10850783437490463,0.03504706919193268,-0.04951583221554756
1711795435797605000,5.796605224609375,0.12356454133987427,0.026114825159311295,-0.05829174816608429
1711795435807581200,5.806581298828125,0.1405613273382187,0.029586870223283768,-0.05664884299039841
1711795435817557000,5.816556884765625,0.15019823610782623,0.046836696565151215,-0.04168427363038063
1711795435827533000,5.826532958984375,0.1602839082479477,0.06506824493408203,-0.0162467360496521
1711795435837509000,5.836509033203125,0.16743050515651703,0.06795191019773483,0.013856304809451103
1711795435847484200,5.846484130859375,0.17873962223529816,0.06328685581684113,0.030108246952295303
1711795435857460000,5.8564599609375,0.18699195981025696,0.07288941740989685,0.03979656100273132
1711795435867436300,5.866436279296875,0.19830049574375153,0.08539081364870071,0.03210699185729027
1711795435877412000,5.876412109375,0.20441165566444397,0.10592085123062134,0.019396256655454636
1711795435887388000,5.886387939453125,0.20773372054100037,0.1041954755783081,-0.0017457351787015796
1711795435897363200,5.89636328125,0.21669551730155945,0.0908045694231987,-0.019653895869851112
1711795435907339000,5.906339111328125,0.224572092294693,0.07340214401483536,-0.03550582751631737
1711795435917315000,5.916315185546875,0.22258403897285461,0.06114014983177185,-0.03454123064875603
1711795435927291100,5.926291015625,0.21484404802322388,0.06134336441755295,-0.028540685772895813
1711795435937267000,5.936266845703125,0.20272614061832428,0.04365251585841179,-0.023242592811584473
1711795435947243000,5.946242919921875,0.1842392534017563,0.025318441912531853,-0.021873019635677338
1711795435957218000,5.956218017578125,0.165209099650383,0.009483285248279572,-0.012878458946943283
1711795435967194000,5.966194091796875,0.15080252289772034,0.025671035051345825,-0.0019122714875265956
1711795435977170000,5.976169921875,0.1446532905101776,0.06772341579198837,0.03265928849577904
1711795435987145700,5.986145751953125,0.14193177223205566,0.12848986685276031,0.07214890420436859
1711795435997121800,5.996121826171875,0.13427652418613434,0.23198910057544708,0.10560540109872818
1711795436007096800,6.006096923828125,0.12183049321174622,0.34867143630981445,0.11248026043176651
1711795436017072600,6.01607275390625,0.11485327780246735,0.4386274218559265,0.08855575323104858
1711795436027048700,6.026048583984375,0.10920524597167969,0.4448951780796051,0.0439872220158577
1711795436037024800,6.036024658203125,0.09892970323562622,0.3926231861114502,-0.01385051291435957
1711795436047000600,6.04600048828125,0.0928632915019989,0.33511701226234436,-0.061076611280441284
1711795436056976000,6.055975830078125,0.0891316682100296,0.2739098370075226,-0.07960636168718338
1711795436066951700,6.06595166015625,0.10271592438220978,0.24306467175483704,-0.06225483864545822
1711795436076927700,6.075927734375,0.1079263985157013,0.23416277766227722,-0.03067054972052574
1711795436086903800,6.08590380859375,0.10500112920999527,0.25600019097328186,0.025650156661868095
1711795436096879600,6.095879638671875,0.10141944140195847,0.3093307912349701,0.08759768307209015
1711795436106856000,6.10585595703125,0.10090120881795883,0.3500269651412964,0.14110635221004486
1711795436116830700,6.115830810546875,0.09917227923870087,0.3245477080345154,0.1924789994955063
1711795436126806800,6.125806884765625,0.10123284161090851,0.23829390108585358,0.22764164209365845
1711795436136782600,6.135782470703125,0.08810558915138245,0.14943912625312805,0.23359300196170807
1711795436146759000,6.145759033203125,0.07282570004463196,0.07343829423189163,0.215464785695076
1711795436156734700,6.155734619140625,0.06062681972980499,0.009674759581685066,0.18097977340221405
1711795436166709800,6.165709716796875,0.06328170746564865,-0.03654559701681137,0.1462012529373169
1711795436176685800,6.175685791015625,0.060526929795742035,-0.08339112997055054,0.10967493057250977
1711795436186661600,6.18566162109375,0.06133938953280449,-0.148969829082489,0.08558175712823868
1711795436196638000,6.195637939453125,0.06461986899375916,-0.21435895562171936,0.08137742429971695
1711795436206613800,6.20561376953125,0.06713589280843735,-0.2517143785953522,0.09778067469596863
1711795436216588800,6.2155888671875,0.06317523866891861,-0.2592737674713135,0.1325109601020813
1711795436226564600,6.225564697265625,0.06609934568405151,-0.2115287035703659,0.16063496470451355
1711795436236540700,6.235540771484375,0.06375150382518768,-0.12160442024469376,0.17217257618904114
1711795436246516700,6.245516845703125,0.04139292985200882,-0.03392942249774933,0.1548958569765091
1711795436256492800,6.255492919921875,0.005547847133129835,-0.028145305812358856,0.12202871590852737
1711795436266468900,6.26546875,-0.03013371117413044,-0.07909629493951797,0.07602296024560928
1711795436276443600,6.275443603515625,-0.05227256938815117,-0.13901156187057495,0.011147559620440006
1711795436286420000,6.285419921875,-0.0522853285074234,-0.15575969219207764,-0.057846955955028534
1711795436296395800,6.295395751953125,-0.022834230214357376,-0.1357542872428894,-0.10200562328100204
1711795436306371600,6.30537158203125,0.02760414406657219,-0.09107783436775208,-0.12992580235004425
1711795436316348000,6.315347900390625,0.0939573347568512,-0.04628825932741165,-0.1303817331790924
1711795436326322700,6.32532275390625,0.15162144601345062,0.0004146816208958626,-0.0978342741727829
1711795436336298800,6.335298828125,0.19021783769130707,0.004229659214615822,-0.056421052664518356
1711795436346274800,6.34527490234375,0.2101244181394577,-0.018517764285206795,-0.026408648118376732
1711795436356251000,6.3552509765625,0.21918341517448425,-0.03317979723215103,-0.02706298790872097
1711795436366226700,6.365226806640625,0.22170385718345642,-0.03404004126787186,-0.06461915373802185
1711795436376202000,6.375201904296875,0.22219200432300568,-0.034328460693359375,-0.137380450963974
1711795436386177800,6.385177734375,0.22263884544372559,-0.03030228614807129,-0.23503464460372925
1711795436396153600,6.395153564453125,0.20053912699222565,-0.03602036088705063,-0.3363783359527588
1711795436406130000,6.4051298828125,0.17837204039096832,-0.08047694712877274,-0.41674908995628357
1711795436416105700,6.415105712890625,0.1520344465970993,-0.1204744279384613,-0.47491148114204407
1711795436426081500,6.42508154296875,0.12349016964435577,-0.14173990488052368,-0.5063143372535706
1711795436436056800,6.435056884765625,0.09327953308820724,-0.17639508843421936,-0.4968161880970001
1711795436446032600,6.44503271484375,0.07055742293596268,-0.21235375106334686,-0.442414790391922
1711795436456008700,6.4550087890625,0.045084819197654724,-0.2248503565788269,-0.3466584384441376
1711795436465984800,6.46498486328125,0.02527703531086445,-0.24434489011764526,-0.2237183004617691
1711795436475960800,6.4749609375,0.021159522235393524,-0.26222190260887146,-0.1045551598072052
1711795436485935600,6.484935546875,0.0283194612711668,-0.2493050992488861,-0.026262352243065834
1711795436495912000,6.494911865234375,0.038165170699357986,-0.2098674178123474,0.010244792327284813
1711795436505887700,6.5048876953125,0.037823211401700974,-0.17011767625808716,-0.0007554832845926285
1711795436515863600,6.514863525390625,0.030295519158244133,-0.15170590579509735,-0.04752911627292633
1711795436525840000,6.52483984375,0.01968890056014061,-0.15662077069282532,-0.10195142775774002
1711795436535814700,6.534814697265625,0.008623997680842876,-0.16980713605880737,-0.15283697843551636
1711795436545790700,6.544790771484375,0.004617293365299702,-0.17167885601520538,-0.1792142540216446
1711795436555766800,6.554766845703125,-0.009634879417717457,-0.16853366792201996,-0.18234241008758545
1711795436565742800,6.564742919921875,-0.03248535096645355,-0.13499759137630463,-0.17359547317028046
1711795436575718700,6.57471875,-0.06369014084339142,-0.09962388873100281,-0.17231503129005432
1711795436585694000,6.58469384765625,-0.09364376962184906,-0.07114779204130173,-0.17292103171348572
1711795436595669800,6.594669677734375,-0.12128045409917831,-0.0355389341711998,-0.17407524585723877
1711795436605645600,6.6046455078125,-0.14684630930423737,-0.017366960644721985,-0.17738281190395355
1711795436615622000,6.614621826171875,-0.169363334774971,-0.019775791093707085,-0.17895087599754333
1711795436625597700,6.62459765625,-0.18388605117797852,-0.02797483280301094,-0.18072392046451569
1711795436635573800,6.63457373046875,-0.19702182710170746,-0.04272527992725372,-0.19715748727321625
1711795436645548800,6.644548828125,-0.2028372883796692,-0.06787919998168945,-0.21606850624084473
1711795436655524600,6.654524658203125,-0.20967388153076172,-0.09428630024194717,-0.2317715734243393
1711795436665500700,6.664500732421875,-0.21992282569408417,-0.12284641712903976,-0.23968452215194702
1711795436675476700,6.674476806640625,-0.23095735907554626,-0.13934017717838287,-0.23891140520572662
1711795436685452800,6.684452880859375,-0.24918407201766968,-0.13580504059791565,-0.21536187827587128
1711795436695427600,6.694427490234375,-0.26530152559280396,-0.10256107151508331,-0.1678396314382553
1711795436705404000,6.70440380859375,-0.2867937386035919,-0.04374520480632782,-0.10589104890823364
1711795436715379700,6.714379638671875,-0.30466726422309875,0.03602498769760132,-0.049149736762046814
1711795436725355800,6.724355712890625,-0.3167986273765564,0.10608942806720734,-0.0013418251182883978
1711795436735331800,6.734331787109375,-0.3208090662956238,0.16369333863258362,0.030536212027072906
1711795436745306600,6.744306640625,-0.31882283091545105,0.18934877216815948,0.04164106398820877
1711795436755282700,6.75428271484375,-0.3201054036617279,0.17545905709266663,0.0370473749935627
1711795436765258800,6.7642587890625,-0.31966328620910645,0.13922208547592163,0.025993172079324722
1711795436775234800,6.77423486328125,-0.31584325432777405,0.10377460718154907,0.0054183900356292725
1711795436785211000,6.7842109375,-0.31187888979911804,0.07064104825258255,-0.009314039722084999
1711795436795186000,6.79418603515625,-0.2944205105304718,0.033834826201200485,-0.01823216676712036
1711795436805161700,6.80416162109375,-0.272196501493454,0.026730533689260483,-0.027620654553174973
1711795436815137800,6.8141376953125,-0.25319910049438477,0.02418747916817665,-0.03928929194808006
1711795436825113900,6.82411376953125,-0.24285323917865753,0.031109794974327087,-0.0445740707218647
1711795436835089700,6.834089599609375,-0.23017844557762146,0.034493338316679,-0.047443095594644547
1711795436845064700,6.844064697265625,-0.21741122007369995,0.042009420692920685,-0.03366158902645111
1711795436855040800,6.854040771484375,-0.21125240623950958,0.04849395155906677,-0.0013523864326998591
1711795436865016600,6.8640166015625,-0.20998847484588623,0.05840795487165451,0.05953182652592659
1711795436874993000,6.873992919921875,-0.2094569057226181,0.062088705599308014,0.1438371241092682
1711795436884968700,6.88396875,-0.21234533190727234,0.0509064644575119,0.24104668200016022
1711795436894944800,6.89394482421875,-0.22487710416316986,0.0357525497674942,0.32016226649284363
1711795436904919800,6.903919921875,-0.24607940018177032,0.035062842071056366,0.3524886667728424
1711795436914896000,6.913895751953125,-0.2618780732154846,0.04785693436861038,0.3159027099609375
1711795436924871700,6.92387158203125,-0.276380330324173,0.012983465567231178,0.233128160238266
1711795436934847700,6.93384765625,-0.2672278583049774,-0.06817051023244858,0.13307879865169525
1711795436944823800,6.94382373046875,-0.25214073061943054,-0.15928272902965546,0.04631504416465759
1711795436954798600,6.953798583984375,-0.23922838270664215,-0.21332652866840363,-0.022811828181147575
1711795436964775000,6.96377490234375,-0.22626791894435883,-0.23214994370937347,-0.05509356036782265
1711795436974750700,6.973750732421875,-0.21150735020637512,-0.23483866453170776,-0.05246875062584877
1711795436984726500,6.9837265625,-0.21171452105045319,-0.22159183025360107,-0.03223329409956932
1711795436994702300,6.993702392578125,-0.22059962153434753,-0.19826413691043854,-0.019908186048269272
1711795437004677400,7.003677490234375,-0.23051245510578156,-0.1991446316242218,-0.004677256569266319
1711795437014653400,7.0136533203125,-0.2244763970375061,-0.20259049534797668,0.012461250647902489
1711795437024629200,7.023629150390625,-0.2037050575017929,-0.19482670724391937,0.046166129410266876
1711795437034605300,7.033605224609375,-0.17132048308849335,-0.15608783066272736,0.09113014489412308
1711795437044581400,7.043581298828125,-0.14525717496871948,-0.09222991019487381,0.1276284158229828
1711795437054556400,7.053556396484375,-0.11991079151630402,-0.0342121459543705,0.144330695271492
1711795437064532200,7.0635322265625,-0.09987822920084,0.011827782727777958,0.14464867115020752
1711795437074508500,7.073508544921875,-0.07849277555942535,0.03398687765002251,0.1348748803138733
1711795437084484400,7.083484375,-0.06305260956287384,0.024217957630753517,0.1268257349729538
1711795437094460400,7.09346044921875,-0.05301728844642639,0.007494635879993439,0.12810884416103363
1711795437104435500,7.103435546875,-0.050357554107904434,-0.015550749376416206,0.1426701694726944
1711795437114411300,7.113411376953125,-0.049094948917627335,-0.032391514629125595,0.16595284640789032
1711795437124387300,7.12338720703125,-0.04833567142486572,-0.028226617723703384,0.20459119975566864
1711795437134363400,7.13336328125,-0.05525562912225723,0.0105191795155406,0.24185094237327576
1711795437144339200,7.143339111328125,-0.0613442063331604,0.06279413402080536,0.2774771451950073
1711795437154314200,7.153314208984375,-0.06554427742958069,0.11132917553186417,0.31041139364242554
1711795437164290300,7.163290283203125,-0.07214218378067017,0.14435550570487976,0.3264390528202057
1711795437174266400,7.173266357421875,-0.06773678213357925,0.14117489755153656,0.3065931797027588
1711795437184242400,7.183242431640625,-0.06674160808324814,0.11008338630199432,0.2521894574165344
1711795437194218500,7.193218505859375,-0.07185008376836777,0.06779744476079941,0.17249943315982819
1711795437204194300,7.2031943359375,-0.0824476033449173,-0.002496957778930664,0.06912218034267426
1711795437214169300,7.21316943359375,-0.08774968981742859,-0.05959433317184448,-0.038357142359018326
1711795437224145400,7.2231455078125,-0.09254126995801926,-0.09292995184659958,-0.13106825947761536
1711795437234121200,7.233121337890625,-0.09787185490131378,-0.11653833836317062,-0.20035359263420105
1711795437244097500,7.24309765625,-0.0994362160563469,-0.09452950209379196,-0.24309834837913513
1711795437254073300,7.2530732421875,-0.09579860419034958,-0.04891274869441986,-0.2583116292953491
1711795437264048400,7.26304833984375,-0.07884961366653442,-0.008131873793900013,-0.24650856852531433
1711795437274024400,7.2730244140625,-0.06499291956424713,0.02826182171702385,-0.2428903877735138
1711795437284000500,7.28300048828125,-0.04894893988966942,0.06600114703178406,-0.24099090695381165
1711795437293976300,7.292976318359375,-0.03848005458712578,0.08762361854314804,-0.252542644739151
1711795437303952400,7.302952392578125,-0.025414705276489258,0.07404688745737076,-0.2633054256439209
1711795437313927400,7.312927490234375,-0.006426898762583733,0.04770688712596893,-0.27324700355529785
1711795437323903200,7.3229033203125,0.010940412059426308,0.035058215260505676,-0.26796388626098633
1711795437333879600,7.332879638671875,0.02256590873003006,0.018808938562870026,-0.23744937777519226
1711795437343855400,7.34285546875,0.025473540648818016,-0.005009383894503117,-0.1888987123966217
1711795437353831200,7.3528310546875,0.03501778095960617,-0.019469549879431725,-0.1306905299425125
1711795437363806500,7.362806396484375,0.03781311586499214,-0.005957102868705988,-0.07016807049512863
1711795437373782300,7.3727822265625,0.04298364371061325,0.028028560802340508,-0.021068166941404343
1711795437383758300,7.38275830078125,0.047941021621227264,0.06565309315919876,-0.0012874067761003971
1711795437393734400,7.392734375,0.052398089319467545,0.08360572904348373,-0.014053269289433956
1711795437403710500,7.40271044921875,0.0570138655602932,0.07924544811248779,-0.0514514185488224
1711795437413685200,7.412685302734375,0.06340012699365616,0.06479300558567047,-0.10399851948022842
1711795437423661600,7.42266162109375,0.06710166484117508,0.040271833539009094,-0.15385644137859344
1711795437433637400,7.432637451171875,0.07224130630493164,0.009471576660871506,-0.1865350306034088
1711795437443613200,7.44261328125,0.0740666314959526,-0.003594424109905958,-0.2088688313961029
1711795437453589500,7.452589599609375,0.062147125601768494,0.012058837339282036,-0.22671067714691162
1711795437463564300,7.462564208984375,0.0466662272810936,0.02945084497332573,-0.23277659714221954
1711795437473540400,7.472540283203125,0.033773064613342285,0.0413258820772171,-0.22692270576953888
1711795437483516400,7.482516357421875,0.029428625479340553,0.05400826036930084,-0.21454943716526031
1711795437493492500,7.492492431640625,0.021679626777768135,0.05056239292025566,-0.18630555272102356
1711795437503468300,7.50246826171875,0.018329884856939316,0.04260428249835968,-0.14613837003707886
1711795437513443600,7.512443603515625,0.025721222162246704,0.06928861886262894,-0.09667734801769257
1711795437523419400,7.52241943359375,0.0360119491815567,0.09603855758905411,-0.04847138747572899
1711795437533395200,7.532395263671875,0.043374788016080856,0.08966881036758423,-0.009749555960297585
1711795437543371500,7.54237158203125,0.050930220633745193,0.06644169986248016,0.007673377636820078
1711795437553347300,7.552347412109375,0.058175086975097656,0.029844801872968674,0.024735717102885246
1711795437563322400,7.562322265625,0.06114445999264717,0.004310423508286476,0.042205166071653366
1711795437573298400,7.57229833984375,0.05850846692919731,0.0018134433776140213,0.049837253987789154
1711795437583274200,7.582274169921875,0.0651341900229454,0.01682824268937111,0.06056299805641174
1711795437593250300,7.592250244140625,0.07543716579675674,0.047320105135440826,0.06008123606443405
1711795437603226400,7.602226318359375,0.08456215262413025,0.09383616596460342,0.05911393091082573
1711795437613202400,7.612202392578125,0.09019873291254044,0.12027841806411743,0.05893922597169876
1711795437623177200,7.62217724609375,0.09517834335565567,0.13562333583831787,0.05347956717014313
1711795437633153500,7.632153564453125,0.0830385833978653,0.13624757528305054,0.05036313831806183
1711795437643129300,7.64212939453125,0.06983941793441772,0.11574311554431915,0.03605303913354874
1711795437653105400,7.65210546875,0.05637287721037865,0.09015733003616333,0.030887575820088387
1711795437663081500,7.66208154296875,0.04763748496770859,0.05571671202778816,0.030691033229231834
1711795437673056300,7.67205615234375,0.03934413567185402,0.039662644267082214,0.03955456614494324
1711795437683032300,7.6820322265625,0.028491446748375893,0.04824928939342499,0.060652926564216614
1711795437693008400,7.69200830078125,0.015374045819044113,0.07414880394935608,0.08020932227373123
1711795437702984400,7.701984375,0.01014728844165802,0.09146305918693542,0.09032990783452988
1711795437712960500,7.71196044921875,0.008958186954259872,0.08824170380830765,0.10091570019721985
1711795437722935600,7.721935546875,0.014040055684745312,0.06674239784479141,0.10992708802223206
1711795437732911400,7.731911376953125,0.019726701080799103,0.05065690353512764,0.12154433131217957
1711795437742887400,7.741887451171875,0.019498774781823158,0.07794766128063202,0.12896092236042023
1711795437752863500,7.751863525390625,0.020253514871001244,0.12142430245876312,0.1198585107922554
1711795437762839300,7.76183935546875,0.03605402633547783,0.1365915685892105,0.0871943011879921
1711795437772814300,7.771814453125,0.04833146557211876,0.11715342849493027,0.02668941207230091
1711795437782790400,7.781790283203125,0.05296755209565163,0.045633770525455475,-0.03538763150572777
1711795437792766200,7.79176611328125,0.054704997688531876,-0.05092658847570419,-0.08084113150835037
1711795437802742500,7.801742431640625,0.04980712756514549,-0.12909239530563354,-0.10725316405296326
1711795437812718300,7.81171826171875,0.03780985251069069,-0.18443261086940765,-0.10279103368520737
1711795437822693400,7.821693359375,0.027900144457817078,-0.20552566647529602,-0.06948213279247284
1711795437832669400,7.83166943359375,0.00583292543888092,-0.1971108615398407,-0.03149320185184479
1711795437842645500,7.8416455078125,-0.015406177379190922,-0.16954989731311798,-0.0015199437038972974
1711795437852621300,7.851621337890625,-0.0380406528711319,-0.13094046711921692,0.004745675250887871
1711795437862597400,7.861597412109375,-0.053659334778785706,-0.09108351916074753,0.002406887011602521
1711795437872572400,7.871572509765625,-0.04899746924638748,-0.044181786477565765,-0.0006147355306893587
1711795437882548200,7.88154833984375,-0.03927908465266228,-0.013168072327971458,0.009132122620940208
1711795437892524500,7.891524658203125,-0.024053262546658516,0.012684296816587448,0.04228341951966286
1711795437902500400,7.901500244140625,-0.010732115246355534,0.03721615672111511,0.10019004344940186
1711795437912476400,7.911476318359375,-0.0026451607700437307,0.05088270083069801,0.16378046572208405
1711795437922451500,7.921451416015625,0.006635383702814579,0.04828877002000809,0.20500890910625458
1711795437932427500,7.931427490234375,0.017278173938393593,0.03963109850883484,0.20868593454360962
1711795437942403300,7.9414033203125,0.03060995787382126,0.01496250182390213,0.1840120106935501
1711795437952379400,7.95137939453125,0.04522991552948952,-0.030258504673838615,0.12460914254188538
1711795437962355500,7.96135546875,0.0642949640750885,-0.08540806174278259,0.0443786159157753
1711795437972330200,7.971330322265625,0.090595543384552,-0.15211226046085358,-0.035123664885759354
1711795437982306600,7.981306640625,0.11227761954069138,-0.20752640068531036,-0.09592803567647934
1711795437992282600,7.99128271484375,0.13485881686210632,-0.23538893461227417,-0.13007216155529022
1711795438002258400,8.001258544921875,0.14879101514816284,-0.22586555778980255,-0.1310659945011139
1711795438012234800,8.01123486328125,0.1590484380722046,-0.21988941729068756,-0.1061643734574318
1711795438022209500,8.02120947265625,0.16484631597995758,-0.22017249464988708,-0.05148106813430786
1711795438032185600,8.031185546875,0.17508617043495178,-0.19435393810272217,0.018422113731503487
1711795438042161700,8.04116162109375,0.1791565716266632,-0.1529766172170639,0.08211662620306015
1711795438052137700,8.0511376953125,0.18986406922340393,-0.11564922332763672,0.13096380233764648
1711795438062113500,8.061113525390626,0.19829243421554565,-0.06629400700330734,0.15488262474536896
1711795438072088600,8.071088623046874,0.2100130021572113,-0.006525478791445494,0.14847266674041748
1711795438082064600,8.081064697265624,0.21075443923473358,0.047202616930007935,0.12059353291988373
1711795438092040400,8.09104052734375,0.21844272315502167,0.08036403357982635,0.08857035636901855
1711795438102016800,8.101016845703125,0.2303592413663864,0.097138412296772,0.061217643320560455
1711795438111992600,8.11099267578125,0.23880545794963837,0.0934845581650734,0.041843947023153305
1711795438121967600,8.120967529296875,0.24194170534610748,0.0859840139746666,0.03407302498817444
1711795438131943700,8.130943603515625,0.23068957030773163,0.09851738810539246,0.015629570931196213
1711795438141919500,8.14091943359375,0.21877935528755188,0.12524573504924774,-0.027247190475463867
1711795438151895600,8.1508955078125,0.20584331452846527,0.1431048959493637,-0.08057299256324768
1711795438161871600,8.16087158203125,0.1908814013004303,0.13939282298088074,-0.14914371073246002
1711795438171846700,8.1708466796875,0.1693611890077591,0.1231699213385582,-0.2252536565065384
1711795438181822500,8.180822509765624,0.15658414363861084,0.08847257494926453,-0.30113333463668823
1711795438191798800,8.190798828125,0.14197349548339844,0.03085455484688282,-0.3481309413909912
1711795438201774600,8.200774658203125,0.12474656850099564,-0.021659839898347855,-0.35183054208755493
1711795438211750400,8.21075048828125,0.11469633132219315,-0.05918777361512184,-0.31074464321136475
1711795438221725700,8.2207255859375,0.10043034702539444,-0.04921076446771622,-0.2362464815378189
1711795438231701500,8.230701416015625,0.08093786984682083,-0.03195507824420929,-0.1372634321451187
1711795438241677600,8.240677490234376,0.06560681760311127,-0.01927216723561287,-0.04081710800528526
1711795438251653600,8.250653564453126,0.05632384493947029,0.0036480631679296494,0.03430747240781784
1711795438261629700,8.260629638671874,0.05192059278488159,0.023930218070745468,0.07281194627285004
1711795438271604500,8.2706044921875,0.04578680172562599,0.02754545956850052,0.07678831368684769
1711795438281580800,8.280580810546875,0.048041149973869324,0.010848620906472206,0.04953760281205177
1711795438291556600,8.290556640625,0.05272112414240837,-0.010303801856935024,0.00023583229631185532
1711795438301532400,8.300532470703125,0.05544634908437729,-0.031504981219768524,-0.05778792127966881
1711795438311508700,8.3105087890625,0.06033111736178398,-0.05352985858917236,-0.10679354518651962
1711795438321483500,8.3204833984375,0.06401368975639343,-0.06412186473608017,-0.1446847915649414
1711795438331459600,8.33045947265625,0.07319147139787674,-0.04745793342590332,-0.1688777357339859
1711795438341435600,8.340435546875,0.07469885796308517,-0.031484454870224,-0.1808471381664276
1711795438351411500,8.350411376953126,0.07046869397163391,-0.04215707629919052,-0.17587287724018097
1711795438361387500,8.360387451171874,0.06246934086084366,-0.06284918636083603,-0.16319188475608826
1711795438371362600,8.370362548828124,0.0528702475130558,-0.08864296227693558,-0.13828414678573608
1711795438381338600,8.380338623046875,0.046674422919750214,-0.09203161299228668,-0.10624311864376068
1711795438391314400,8.390314453125,0.0350385420024395,-0.06758379191160202,-0.062336113303899765
1711795438401290800,8.400290771484375,0.018063517287373543,-0.035747941583395004,-0.0063497223891317844
1711795438411266600,8.4102666015625,-0.0006822077557444572,-0.011873235926032066,0.04610735923051834
1711795438421241600,8.42024169921875,-0.013482870534062386,0.001661485992372036,0.07643761485815048
1711795438431217700,8.4302177734375,-0.024632195010781288,0.007416311651468277,0.07953034341335297
1711795438441193500,8.440193359375,-0.03512437269091606,0.01749386638402939,0.061594266444444656
1711795438451169500,8.45016943359375,-0.05057816207408905,0.009665505029261112,0.039743293076753616
1711795438461145600,8.4601455078125,-0.05878385901451111,-0.006995485629886389,0.0267116017639637
1711795438471120600,8.47012060546875,-0.07088153064250946,-0.020400241017341614,0.022767193615436554
1711795438481096400,8.480096435546875,-0.07768481969833374,-0.02119223028421402,0.03670760244131088
1711795438491072800,8.49007275390625,-0.08220233768224716,-0.00509741622954607,0.05956444889307022
1711795438501048600,8.500048583984375,-0.08134584873914719,0.024710524827241898,0.08773256838321686
1711795438511024400,8.5100244140625,-0.07778467237949371,0.04535295441746712,0.11094973981380463
1711795438520999700,8.519999755859375,-0.07816074788570404,0.05104997754096985,0.11505024880170822
1711795438530975500,8.5299755859375,-0.08049900084733963,0.041564859449863434,0.10048249363899231
1711795438540951600,8.53995166015625,-0.07810137420892715,0.023985087871551514,0.07683002948760986
1711795438550927600,8.549927734375,-0.07855091989040375,-0.0020134886726737022,0.05636390298604965
1711795438560903400,8.5599033203125,-0.08411824703216553,-0.03361598402261734,0.03985048457980156
1711795438570878500,8.56987841796875,-0.08884775638580322,-0.058564212173223495,0.04587801545858383
1711795438580854500,8.5798544921875,-0.09553838521242142,-0.0784788653254509,0.06379297375679016
1711795438590830600,8.58983056640625,-0.09695598483085632,-0.04585807025432587,0.09168612211942673
1711795438600806400,8.599806396484375,-0.10710692405700684,0.012527464888989925,0.12032419443130493
1711795438610782700,8.60978271484375,-0.11476697772741318,0.04220599681138992,0.1571032553911209
1711795438620757500,8.619757568359375,-0.12383635342121124,0.04468127340078354,0.206753671169281
1711795438630733600,8.629733642578126,-0.12819620966911316,0.03060113824903965,0.2529635429382324
1711795438640709600,8.639709716796874,-0.14182600378990173,0.005486920475959778,0.290458083152771
1711795438650685400,8.649685546875,-0.16197708249092102,-0.005630445200949907,0.29399821162223816
1711795438660661800,8.659661865234375,-0.1843598634004593,-0.01596827059984207,0.2501554787158966
1711795438670636500,8.669636474609375,-0.20159956812858582,-0.035846102982759476,0.17332008481025696
1711795438680612600,8.679612548828125,-0.20866365730762482,-0.07511857151985168,0.07751619070768356
1711795438690588400,8.68958837890625,-0.20649531483650208,-0.12880390882492065,-0.029220638796687126
1711795438700564700,8.699564697265625,-0.19842857122421265,-0.17798197269439697,-0.12391674518585205
1711795438710540500,8.70954052734375,-0.18812532722949982,-0.1946517527103424,-0.1932753175497055
1711795438720515600,8.719515625,-0.18118958175182343,-0.1892918348312378,-0.22057665884494781
1711795438730491600,8.72949169921875,-0.17313405871391296,-0.17686685919761658,-0.2079804390668869
1711795438740467500,8.739467529296874,-0.160270556807518,-0.12015722692012787,-0.16919808089733124
1711795438750443800,8.74944384765625,-0.14626632630825043,-0.048405811190605164,-0.10000835359096527
1711795438760419600,8.759419677734375,-0.12210051715373993,0.005920238792896271,-0.009437169879674911
1711795438770394600,8.76939453125,-0.10471859574317932,0.04425803944468498,0.06612522900104523
1711795438780370400,8.779370361328125,-0.08630069345235825,0.06312046945095062,0.1320863664150238
1711795438790346500,8.789346435546875,-0.06770650297403336,0.03191700577735901,0.17413447797298431
1711795438800322600,8.799322509765625,-0.053419165313243866,-0.003002382814884186,0.20154093205928802
1711795438810298600,8.809298583984376,-0.03989030793309212,-0.011648069135844707,0.20981457829475403
1711795438820273700,8.819273681640626,-0.030247777700424194,0.029617834836244583,0.21150089800357819
1711795438830249500,8.82924951171875,-0.03533521294593811,0.1011146530508995,0.21433183550834656
1711795438840225800,8.839225830078124,-0.051965102553367615,0.16632702946662903,0.2209061086177826
1711795438850201600,8.84920166015625,-0.06851770728826523,0.1883481740951538,0.22425077855587006
1711795438860177400,8.859177490234375,-0.07844406366348267,0.16328099370002747,0.23117052018642426
1711795438870152400,8.86915234375,-0.09662865847349167,0.10544352978467941,0.24029423296451569
1711795438880128500,8.87912841796875,-0.1207636222243309,0.04411594569683075,0.23725178837776184
1711795438890104600,8.8891044921875,-0.14326335489749908,0.00033703818917274475,0.22041502594947815
1711795438900080600,8.89908056640625,-0.16369350254535675,-0.017515046522021294,0.2022303342819214
1711795438910056700,8.909056640625,-0.1678893119096756,-0.018605876713991165,0.17910903692245483
1711795438920031500,8.919031494140626,-0.1625097095966339,-0.009515675716102123,0.16398636996746063
1711795438930007800,8.9290078125,-0.14647454023361206,0.0003872886300086975,0.15520194172859192
1711795438939983600,8.938983642578124,-0.132376566529274,-0.013858567923307419,0.14811010658740997
1711795438949959400,8.94895947265625,-0.1220746636390686,-0.016041826456785202,0.1539432406425476
1711795438959934500,8.9589345703125,-0.1115908995270729,-0.012750895693898201,0.1560850739479065
1711795438969910500,8.96891064453125,-0.1132654920220375,-0.01208004541695118,0.16056238114833832
1711795438979886600,8.978886474609375,-0.12230934202671051,0.005440494976937771,0.1684889793395996
1711795438989862400,8.9888623046875,-0.1255623996257782,0.015171952545642853,0.16840854287147522
1711795438999838500,8.99883837890625,-0.12841619551181793,0.020999664440751076,0.15367886424064636
1711795439009813500,9.0088134765625,-0.14220444858074188,0.02654915861785412,0.11094339191913605
1711795439019789600,9.01878955078125,-0.15172182023525238,0.026991020888090134,0.05353415757417679
1711795439029765600,9.028765625,-0.15082380175590515,0.02268841862678528,-0.01643826626241207
1711795439039741400,9.038741455078124,-0.15281237661838531,0.01269659772515297,-0.08953435719013214
1711795439049717500,9.048717529296875,-0.14186811447143555,0.010038763284683228,-0.1547652930021286
1711795439059692500,9.058692626953125,-0.13146154582500458,0.007322360761463642,-0.21097970008850098
1711795439069668600,9.068668701171875,-0.12352826446294785,0.01001215260475874,-0.2513851821422577
1711795439079644400,9.07864453125,-0.11383061856031418,0.02896202728152275,-0.2724069356918335
1711795439089620500,9.088620361328125,-0.11097544431686401,0.03791690617799759,-0.2700375020503998
1711795439099596500,9.098596435546876,-0.11117140203714371,0.01515822485089302,-0.24384598433971405
1711795439109571600,9.108571533203126,-0.09766970574855804,-0.03642507642507553,-0.20542988181114197
1711795439119547600,9.118547607421876,-0.08199009299278259,-0.07158605009317398,-0.15967513620853424
1711795439129523500,9.1285234375,-0.060768697410821915,-0.08606857806444168,-0.11515320837497711
1711795439139499500,9.13849951171875,-0.037569332867860794,-0.08350624889135361,-0.07372596114873886
1711795439149475600,9.1484755859375,-0.011888205073773861,-0.07180112600326538,-0.039702482521533966
1711795439159450600,9.15845068359375,0.012991519644856453,-0.05948317050933838,-0.019734060391783714
1711795439169426400,9.168426513671875,0.028936928138136864,-0.04564991593360901,-0.022864872589707375
1711795439179402500,9.178402587890625,0.04160449281334877,-0.03648068383336067,-0.03847454860806465
1711795439189378600,9.188378662109375,0.05383825674653053,-0.02437848225235939,-0.062311701476573944
1711795439199354400,9.198354248046876,0.060343291610479355,-0.01197720691561699,-0.09008767455816269
1711795439209329700,9.20832958984375,0.06711571663618088,-0.005307053215801716,-0.11622420698404312
1711795439219305500,9.218305419921874,0.07674521952867508,-0.015458669513463974,-0.137497216463089
1711795439229281500,9.228281494140624,0.0844888910651207,-0.014241338707506657,-0.14810486137866974
1711795439239257600,9.238257568359375,0.09209723770618439,0.0036285342648625374,-0.15239961445331573
1711795439249233400,9.2482333984375,0.09502378851175308,0.007879471406340599,-0.14386391639709473
1711795439259208400,9.25820849609375,0.09661531448364258,-0.001138203777372837,-0.13849341869354248
1711795439269184500,9.2681845703125,0.09491195529699326,-0.02465551346540451,-0.15089629590511322
1711795439279160600,9.27816064453125,0.10077332705259323,-0.061436302959918976,-0.1638043224811554
1711795439289136400,9.288136474609376,0.11169708520174026,-0.10393635928630829,-0.16000905632972717
1711795439299112400,9.298112548828126,0.12321890890598297,-0.12892518937587738,-0.1438256949186325
1711795439309087500,9.30808740234375,0.13319644331932068,-0.12490088492631912,-0.1050037369132042
1711795439319063600,9.3180634765625,0.13332030177116394,-0.09246112406253815,-0.04537826031446457
1711795439329039600,9.32803955078125,0.141649067401886,-0.03712117671966553,0.02520695887506008
1711795439339015400,9.338015380859375,0.15082764625549316,0.01743333786725998,0.09817268699407578
1711795439348990500,9.347990478515625,0.1683027744293213,0.05491066724061966,0.1540471315383911
1711795439358966500,9.357966552734375,0.17821618914604187,0.07827748358249664,0.18776164948940277
1711795439368942600,9.367942626953125,0.19253388047218323,0.08233428001403809,0.19139394164085388
1711795439378918400,9.37791845703125,0.2072906643152237,0.07429084181785583,0.1686493456363678
1711795439388894500,9.38789453125,0.22058968245983124,0.06589069962501526,0.12960126996040344
1711795439398869500,9.397869384765626,0.23561494052410126,0.07128418982028961,0.08143573999404907
1711795439408845300,9.40784521484375,0.25656232237815857,0.06874033808708191,0.024104010313749313
1711795439418821600,9.417821533203124,0.28079816699028015,0.07168227434158325,-0.02973751723766327
1711795439428797400,9.42779736328125,0.3042433261871338,0.07814842462539673,-0.06679566949605942
1711795439438773500,9.4377734375,0.3193508982658386,0.08583968877792358,-0.07798472046852112
1711795439448748500,9.44774853515625,0.3268042802810669,0.1064741238951683,-0.0665496364235878
1711795439458724600,9.457724609375,0.32861557602882385,0.13200657069683075,-0.03201056644320488
1711795439468700400,9.467700439453125,0.3245105743408203,0.14836664497852325,0.007116330787539482
1711795439478676500,9.477676513671875,0.3137417435646057,0.16500596702098846,0.035596661269664764
1711795439488652500,9.487652587890626,0.3089105188846588,0.18849772214889526,0.026289712637662888
1711795439498627300,9.49762744140625,0.3144243061542511,0.20387136936187744,0.002757088514044881
1711795439508603600,9.507603759765624,0.3246852159500122,0.1977839171886444,-0.03268612176179886
1711795439518579500,9.517579345703124,0.3395978808403015,0.1755014955997467,-0.06588420271873474
1711795439528555500,9.527555419921875,0.3486989736557007,0.1500547230243683,-0.07941412180662155
1711795439538531600,9.537531494140625,0.35412219166755676,0.12105999141931534,-0.08100447803735733
1711795439548506600,9.547506591796875,0.35694220662117004,0.11528146266937256,-0.05682244151830673
1711795439558482400,9.557482421875,0.34382033348083496,0.12209717929363251,-0.025774596258997917
1711795439568458500,9.56745849609375,0.33652910590171814,0.1218966394662857,0.0027715598698705435
1711795439578434600,9.5774345703125,0.33152180910110474,0.13474777340888977,0.02498152293264866
1711795439588409300,9.587409423828126,0.32602185010910034,0.14077717065811157,0.023763127624988556
1711795439598385700,9.5973857421875,0.3236524164676666,0.12547293305397034,0.020235056057572365
1711795439608361500,9.607361572265624,0.3217293322086334,0.09790629148483276,0.013283408246934414
1711795439618337300,9.617337158203124,0.3226015567779541,0.08634208142757416,0.003740060841664672
1711795439628313600,9.627313720703125,0.3170246183872223,0.07746602594852448,0.0056719183921813965
1711795439638288400,9.637288330078125,0.306270033121109,0.0756271630525589,0.017101721838116646
1711795439648264400,9.647264404296875,0.30301088094711304,0.08478976786136627,0.05124664306640625
1711795439658240500,9.657240478515625,0.30558744072914124,0.0941404476761818,0.09203308075666428
1711795439668216600,9.667216552734375,0.31379982829093933,0.10103484243154526,0.15717320144176483
1711795439678192600,9.677192626953126,0.32791057229042053,0.10132072120904922,0.2219965010881424
1711795439688167700,9.687167724609376,0.34329938888549805,0.09555284678936005,0.2763609290122986
1711795439698143500,9.6971435546875,0.35187825560569763,0.13043415546417236,0.28848108649253845
1711795439708119300,9.707119384765624,0.3549118638038635,0.20235522091388702,0.25586479902267456
1711795439718095600,9.717095703125,0.3697022497653961,0.2576216757297516,0.19155266880989075
1711795439728071400,9.727071533203125,0.38865089416503906,0.21604253351688385,0.10933928191661835
1711795439738046500,9.73704638671875,0.3942025303840637,0.11515022814273834,0.0187218077480793
1711795439748022500,9.7470224609375,0.39657995104789734,0.0023043686524033546,-0.046898216009140015
1711795439757998600,9.75699853515625,0.4046604037284851,-0.09689637273550034,-0.07089636474847794
1711795439767974700,9.766974609375,0.42133578658103943,-0.17047977447509766,-0.042531032115221024
1711795439777949700,9.77694970703125,0.4300731122493744,-0.2154027223587036,0.027274368330836296
1711795439787925500,9.786925537109376,0.4305889904499054,-0.2318410873413086,0.12415803968906403
1711795439797901300,9.7969013671875,0.42272868752479553,-0.2563943564891815,0.22890704870224
1711795439807877600,9.806877685546874,0.4159698486328125,-0.2727224826812744,0.3166680634021759
1711795439817853400,9.816853515625,0.4043891131877899,-0.25851327180862427,0.3638724982738495
1711795439827828500,9.826828369140625,0.3949391543865204,-0.2380407601594925,0.3726350963115692
1711795439837804500,9.836804443359375,0.38856908679008484,-0.21451707184314728,0.3434431850910187
1711795439847780400,9.8467802734375,0.3946126103401184,-0.13568830490112305,0.2851862609386444
1711795439857756700,9.856756591796875,0.40452221035957336,-0.10087969899177551,0.21468611061573029
1711795439867732500,9.866732421875,0.4119710922241211,-0.11277817189693451,0.14708442986011505
1711795439877707500,9.87670751953125,0.41125258803367615,-0.1446838527917862,0.08823998272418976
1711795439887683300,9.886683349609376,0.41317218542099,-0.18893493711948395,0.05072829872369766
1711795439897659600,9.89665966796875,0.39624908566474915,-0.22056807577610016,0.029167164117097855
1711795439907635500,9.906635498046874,0.37172776460647583,-0.21286913752555847,0.007094088010489941
1711795439917611500,9.916611572265625,0.35087260603904724,-0.1877138763666153,-0.001297086477279663
1711795439927586600,9.926586669921875,0.33807772397994995,-0.15201899409294128,-0.00002409552689641714
1711795439937562400,9.936562255859375,0.3228702247142792,-0.08691435307264328,-0.0006991635309532285
1711795439947538700,9.94653857421875,0.3175281882286072,-0.029782090336084366,-0.014881561510264874
1711795439957514500,9.956514404296875,0.3202877938747406,0.001081603579223156,-0.05704396963119507
1711795439967490600,9.966490478515626,0.33544251322746277,-0.021199999377131462,-0.11799867451190948
1711795439977465300,9.97646533203125,0.3498683273792267,-0.06686276942491531,-0.17700476944446564
1711795439987441700,9.986441650390624,0.3711280822753906,-0.10712204873561859,-0.22428999841213226
1711795439997417500,9.99641748046875,0.39302507042884827,-0.13397379219532013,-0.24725750088691711
1711795440007393500,10.0063935546875,0.40591102838516235,-0.12658724188804626,-0.2685835361480713
1711795440017368600,10.01636865234375,0.4137176275253296,-0.06892001628875732,-0.2871304750442505
1711795440027344400,10.026344482421875,0.4104328751564026,-0.01727999746799469,-0.31164753437042236
1711795440037320700,10.03632080078125,0.3871118128299713,-0.00564879085868597,-0.3452078104019165
1711795440047296500,10.046296630859375,0.34584611654281616,-0.025446463376283646,-0.39607393741607666
1711795440057272300,10.056272216796875,0.29397517442703247,-0.06420648843050003,-0.4507903456687927
1711795440067247400,10.066247314453125,0.24794882535934448,-0.10343511402606964,-0.4839738607406616
1711795440077223400,10.076223388671876,0.21343696117401123,-0.11955104768276215,-0.4912445545196533
1711795440087199500,10.086199462890624,0.18956358730793,-0.11494112014770508,-0.480922132730484
1711795440097175600,10.096175537109374,0.1732626110315323,-0.06420888006687164,-0.4704175889492035
1711795440107151600,10.106151611328125,0.15669694542884827,-0.019397467374801636,-0.47002050280570984
1711795440117126400,10.11612646484375,0.14773677289485931,0.0027815410867333412,-0.4476820230484009
1711795440127102700,10.126102783203125,0.13522949814796448,0.0020984401926398277,-0.43236592411994934
1711795440137078500,10.13607861328125,0.13169503211975098,-0.002029509749263525,-0.3957065939903259
1711795440147054300,10.146054443359375,0.12183386832475662,0.010127820074558258,-0.3379732668399811
1711795440157030700,10.15603076171875,0.11571944504976273,0.04813268408179283,-0.2685452699661255
1711795440167005400,10.16600537109375,0.10422231256961823,0.0943547710776329,-0.20475269854068756
1711795440176981500,10.1759814453125,0.09488125145435333,0.12259756773710251,-0.16221065819263458
1711795440186957600,10.18595751953125,0.08884385973215103,0.1351514309644699,-0.13904514908790588
1711795440196933600,10.19593359375,0.0795488953590393,0.13460558652877808,-0.1314687728881836
1711795440206908400,10.205908447265625,0.07936034351587296,0.13867969810962677,-0.15365183353424072
1711795440216884700,10.215884765625,0.07608599960803986,0.14146143198013306,-0.20568059384822845
1711795440226860500,10.225860595703125,0.0797228068113327,0.14220312237739563,-0.2675410211086273
1711795440236836400,10.23583642578125,0.09309003502130508,0.12477259337902069,-0.32294991612434387
1711795440246812700,10.245812744140625,0.11303551495075226,0.09631192684173584,-0.34930774569511414
1711795440256787500,10.255787353515625,0.13545933365821838,0.07390055060386658,-0.33884453773498535
1711795440266763500,10.265763427734376,0.16488540172576904,0.05778017267584801,-0.2788059711456299
1711795440276739600,10.275739501953124,0.18409396708011627,0.03179662674665451,-0.1890115588903427
1711795440286715400,10.28571533203125,0.1954137235879898,0.022083280608057976,-0.06792987138032913
1711795440296691500,10.29569140625,0.1982700079679489,0.04640618711709976,0.05052656680345535
1711795440306666500,10.30566650390625,0.19246086478233337,0.1156904548406601,0.13990278542041779
1711795440316642600,10.315642578125,0.19238226115703583,0.17495320737361908,0.1831609457731247
1711795440326618400,10.325618408203125,0.20345808565616608,0.15553849935531616,0.19301331043243408
1711795440336594700,10.3355947265625,0.22082266211509705,0.0930587500333786,0.16872577369213104
1711795440346569500,10.345569580078125,0.2398568093776703,0.03288702294230461,0.11647241562604904
1711795440356545500,10.355545654296876,0.26799342036247253,-0.012234159745275974,0.04114837571978569
1711795440366521600,10.365521484375,0.3028233051300049,-0.06505103409290314,-0.03478953242301941
1711795440376497400,10.375497314453124,0.34914493560791016,-0.1222403347492218,-0.1015758067369461
1711795440386473500,10.385473388671874,0.4048595726490021,-0.1496349275112152,-0.1586390882730484
1711795440396448500,10.395448486328124,0.4755695164203644,-0.20106345415115356,-0.19840140640735626
1711795440406424600,10.405424560546875,0.559393584728241,-0.2532922923564911,-0.21340778470039368
1711795440416400400,10.415400390625,0.6462549567222595,-0.29924818873405457,-0.19988283514976501
1711795440426376700,10.425376708984375,0.7295360565185547,-0.3309808373451233,-0.1418783962726593
1711795440436352500,10.4353525390625,0.8077330589294434,-0.3274877667427063,-0.06500039249658585
1711795440446327600,10.44532763671875,0.8808378577232361,-0.2992324233055115,0.03644926846027374
1711795440456303600,10.4553037109375,0.9446088671684265,-0.22803616523742676,0.1513058990240097
1711795440466279400,10.465279541015626,1.0141428709030151,-0.16276128590106964,0.2578374147415161
1711795440476255500,10.47525537109375,1.1002861261367798,-0.08324756473302841,0.3496018648147583
1711795440486230500,10.48523046875,1.190138578414917,0.006111869588494301,0.4119619131088257
1711795440496206600,10.49520654296875,1.2908587455749512,0.04219767078757286,0.44798558950424194
1711795440506182400,10.505182373046875,1.3815438747406006,0.06945698708295822,0.4609578549861908
1711795440516158500,10.515158447265625,1.464232087135315,0.08043278753757477,0.45062434673309326
1711795440526134500,10.525134521484375,1.533786416053772,0.08317291736602783,0.43048393726348877
1711795440536109600,10.535109619140625,1.5900137424468994,0.04923539236187935,0.388735294342041
1711795440546085600,10.545085693359376,1.6292977333068848,-0.02025899663567543,0.33764415979385376
1711795440556061400,10.5550615234375,1.6738531589508057,-0.10452199727296829,0.2836693227291107
1711795440566037500,10.56503759765625,1.7097831964492798,-0.1590968370437622,0.2271149456501007
1711795440576013600,10.575013671875,1.7526090145111084,-0.1987665295600891,0.17585691809654236
1711795440585988600,10.584988525390624,1.7838181257247925,-0.20098040997982025,0.15245865285396576
1711795440595964400,10.59496435546875,1.8295763731002808,-0.09036040306091309,0.13764432072639465
1711795440605940500,10.6049404296875,1.8761687278747559,0.03979014605283737,0.1401900351047516
1711795440615916500,10.61491650390625,1.9261246919631958,0.16897249221801758,0.1653609573841095
1711795440625891300,10.624891357421875,1.973725438117981,0.3271424472332001,0.19149774312973022
1711795440635867600,10.63486767578125,2.008202314376831,0.4261750280857086,0.23472554981708527
1711795440645843500,10.644843505859376,2.0412755012512207,0.47203493118286133,0.2948584258556366
1711795440655819500,10.654819580078126,2.082604169845581,0.49582213163375854,0.37738287448883057
1711795440665795600,10.664795654296874,2.0815541744232178,0.4457016885280609,0.5906144976615906
1711795440675770600,10.6747705078125,2.152588129043579,0.5971607565879822,0.6478691101074219
1711795440685746400,10.684746337890624,2.158644676208496,0.6489179730415344,0.6832931041717529
1711795440695722500,10.694722412109375,2.203474521636963,0.7329378128051758,0.6439382433891296
1711795440705698600,10.704698486328125,2.243429660797119,0.7499189376831055,0.5861108899116516
1711795440715674400,10.71467431640625,2.259197473526001,0.7439256906509399,0.518131673336029
1711795440725649700,10.724649658203125,2.2771167755126953,0.7183974385261536,0.4404866695404053
1711795440735625500,10.73462548828125,2.288271427154541,0.6662527322769165,0.4039950370788574
1711795440745601500,10.7446015625,2.3020777702331543,0.6705062985420227,0.36908233165740967
1711795440755577600,10.75457763671875,2.307905673980713,0.6658276915550232,0.3411356508731842
1711795440765552600,10.764552734375,2.3016059398651123,0.6563015580177307,0.32358965277671814
1711795440775528400,10.774528564453124,2.295959234237671,0.6421477198600769,0.30508002638816833
1711795440785504500,10.78450439453125,2.267554759979248,0.5918307900428772,0.29751184582710266
1711795440795480600,10.79448046875,2.251960515975952,0.48333898186683655,0.2911185324192047
1711795440805456400,10.804456298828125,2.2423038482666016,0.3851788640022278,0.26293322443962097
1711795440815431700,10.814431640625,2.2235519886016846,0.3815237283706665,0.1958118975162506
1711795440825407500,10.824407470703125,2.2001359462738037,0.4328380227088928,0.10321804136037827
1711795440835383300,10.83438330078125,2.164536952972412,0.490050733089447,0.021404406055808067
1711795440845359600,10.844359619140626,2.1399986743927,0.530985414981842,-0.013124008662998676
1711795440855335400,10.85433544921875,2.0981931686401367,0.5530655980110168,-0.04353446885943413
1711795440865310500,10.864310546875,2.0472187995910645,0.5247553586959839,-0.03806593269109726
1711795440875286500,10.87428662109375,1.9867970943450928,0.46531349420547485,0.012102166190743446
1711795440885262600,10.8842626953125,1.9132930040359497,0.44071921706199646,0.07972994446754456
1711795440895238400,10.89423828125,1.8258723020553589,0.48107436299324036,0.1358768790960312
1711795440905213700,10.904213623046875,1.7392301559448242,0.5580945611000061,0.16998930275440216
1711795440915189500,10.914189453125,1.6658917665481567,0.6542405486106873,0.15876542031764984
1711795440925165300,10.924165283203125,1.6036720275878906,0.6730472445487976,0.12443940341472626
1711795440935141600,10.9341416015625,1.5666468143463135,0.6219304800033569,0.08452188968658447
1711795440945117400,10.944117431640626,1.5439283847808838,0.5387629270553589,0.02626577764749527
1711795440955092500,10.954092529296876,1.5284401178359985,0.4383888840675354,-0.033394791185855865
1711795440965068500,10.964068603515624,1.5095127820968628,0.3620440661907196,-0.11823378503322601
1711795440975044600,10.974044677734375,1.4820140600204468,0.29836511611938477,-0.19585996866226196
1711795440985020400,10.9840205078125,1.4456008672714233,0.26226890087127686,-0.2747558355331421
1711795440994996700,10.993996826171875,1.4017021656036377,0.2535703182220459,-0.3343627452850342
1711795441004971800,11.0039716796875,1.3700370788574219,0.28560733795166016,-0.3886944353580475
1711795441014947600,11.013947509765625,1.3372371196746826,0.2855641543865204,-0.38069552183151245
1711795441024924000,11.023923828125,1.2971014976501465,0.24654936790466309,-0.3616997301578522
1711795441034899700,11.033899658203126,1.2433620691299438,0.18715420365333557,-0.3161885142326355
1711795441044874800,11.043874755859376,1.1880666017532349,0.11246823519468307,-0.24374017119407654
1711795441054850800,11.053850830078124,1.1204898357391357,0.07263196259737015,-0.1670621782541275
1711795441064826600,11.06382666015625,1.045966625213623,0.063348188996315,-0.09975957125425339
1711795441074802700,11.073802734375,0.9783676266670227,0.07746440172195435,-0.046846505254507065
1711795441084778800,11.08377880859375,0.9257422089576721,0.14215843379497528,-0.01234685443341732
1711795441094753800,11.09375390625,0.8862081170082092,0.197837233543396,0.0005977032706141472
1711795441104729600,11.1037294921875,0.8598702549934387,0.2667486369609833,-0.05422559753060341
1711795441114706000,11.113705810546875,0.8281829357147217,0.24562852084636688,-0.15415489673614502
1711795441124681700,11.123681640625,0.8033968806266785,0.10564291477203369,-0.13420090079307556
1711795441134656800,11.13365673828125,0.7806956171989441,0.045568324625492096,-0.11833924800157547
1711795441144632800,11.1436328125,0.748955249786377,-0.02426881343126297,-0.09011027216911316
1711795441154608600,11.153608642578124,0.7062042951583862,-0.09274332225322723,-0.09764906018972397
1711795441164584700,11.163584716796874,0.669016420841217,-0.14235427975654602,-0.14350682497024536
1711795441174560800,11.173560791015625,0.625458836555481,-0.1959165781736374,-0.20513956248760223
1711795441184535800,11.183535888671875,0.5778244733810425,-0.2543095648288727,-0.23691320419311523
1711795441194511600,11.19351171875,0.544453501701355,-0.253324955701828,-0.24026209115982056
1711795441204487700,11.20348779296875,0.5018751621246338,-0.18741466104984283,-0.23775605857372284
1711795441214463700,11.213463623046875,0.4562924802303314,-0.09374970197677612,-0.23742684721946716
1711795441224438800,11.223438720703125,0.4087910056114197,0.00899851880967617,-0.20884686708450317
1711795441234414800,11.233414794921876,0.36097365617752075,0.11093603074550629,-0.1821700781583786
1711795441244390700,11.243390625,0.3194938600063324,0.16172544658184052,-0.15936090052127838
1711795441254366700,11.25336669921875,0.2906300127506256,0.15328359603881836,-0.1455860435962677
1711795441264342800,11.2633427734375,0.2730472981929779,0.08671389520168304,-0.11564705520868301
1711795441274317800,11.27331787109375,0.26404231786727905,0.017076972872018814,-0.0801721140742302
1711795441284293600,11.283293701171875,0.254823237657547,-0.036161214113235474,-0.026858817785978317
1711795441294269700,11.293269775390625,0.24133247137069702,-0.05165473744273186,0.03056829795241356
1711795441304245800,11.303245849609375,0.2216743528842926,-0.04669912904500961,0.09260716289281845
1711795441314221600,11.3132216796875,0.200761079788208,-0.030159225687384605,0.1351107656955719
1711795441324196900,11.32319677734375,0.18309685587882996,-0.034014150500297546,0.1423282027244568
1711795441334172700,11.333172607421876,0.18557487428188324,-0.021443448960781097,0.10487527400255203
1711795441344148700,11.343148681640624,0.18923379480838776,-0.00006918422877788544,0.038532741367816925
1711795441354124800,11.353124755859374,0.19065706431865692,0.025524862110614777,-0.042336490005254745
1711795441364099800,11.363099853515624,0.1915268450975418,0.07410650700330734,-0.12011970579624176
1711795441374075600,11.37307568359375,0.19202248752117157,0.0960894376039505,-0.1547311693429947
1711795441384051700,11.3830517578125,0.17883451282978058,0.10051748156547546,-0.14672330021858215
1711795441394027800,11.39302783203125,0.1539621353149414,0.14297159016132355,-0.10262855142354965
1711795441404003600,11.403003662109375,0.11807870119810104,0.15629085898399353,-0.05032273381948471
1711795441413979000,11.412978759765625,0.08596678078174591,0.1370517462491989,-0.013018112629652023
1711795441423954700,11.42295458984375,0.05995674803853035,0.10261068493127823,-0.012226087972521782
1711795441433930800,11.4329306640625,0.046878281980752945,0.07870934158563614,-0.037406980991363525
1711795441443906800,11.44290673828125,0.01309501938521862,0.04658815264701843,-0.05974637344479561
1711795441453881900,11.4528818359375,-0.03357977047562599,0.0014635641127824783,-0.05244003236293793
1711795441463857700,11.462857666015625,-0.08694126456975937,-0.038576263934373856,0.006879215128719807
1711795441473833700,11.472833740234375,-0.13987848162651062,-0.04414018243551254,0.1024685874581337
1711795441483809800,11.482809814453125,-0.17519067227840424,0.002727990970015526,0.20634038746356964
1711795441493785600,11.49278564453125,-0.20356294512748718,0.05444146320223808,0.27518370747566223
1711795441503761000,11.502760986328125,-0.21546515822410583,0.09932158142328262,0.2778652310371399
1711795441513736700,11.51273681640625,-0.22136461734771729,0.13236881792545319,0.21602408587932587
1711795441523712500,11.52271240234375,-0.21835817396640778,0.15587973594665527,0.10882918536663055
1711795441533688800,11.532688720703124,-0.20302215218544006,0.1521574854850769,-0.0013903528451919556
1711795441543664600,11.54266455078125,-0.1783522218465805,0.11434139311313629,-0.0758265033364296
1711795441553639700,11.5526396484375,-0.15892621874809265,0.0716891959309578,-0.09790671616792679
1711795441563615700,11.56261572265625,-0.14089661836624146,0.02701972797513008,-0.06192314624786377
1711795441573591800,11.572591796875,-0.13782711327075958,0.009978284128010273,-0.007001049816608429
1711795441583567600,11.582567626953125,-0.13801327347755432,0.061283551156520844,0.05227265879511833
1711795441593543000,11.59254296875,-0.14246265590190887,0.12587310373783112,0.09854210168123245
1711795441603518700,11.602518798828125,-0.14989952743053436,0.184030681848526,0.12249644100666046
1711795441613494500,11.61249462890625,-0.16147467494010925,0.2338477373123169,0.1416831761598587
1711795441623470800,11.622470947265626,-0.1652502417564392,0.251848042011261,0.17928089201450348
1711795441633445600,11.632445556640626,-0.1712615191936493,0.2510181665420532,0.211686909198761
1711795441643421700,11.642421630859374,-0.1710311472415924,0.21693477034568787,0.238399475812912
1711795441653397800,11.652397705078124,-0.16610991954803467,0.18011422455310822,0.2502407133579254
1711795441663373800,11.662373779296875,-0.15641626715660095,0.15217553079128265,0.25592735409736633
1711795441673349600,11.672349609375,-0.15735825896263123,0.1485886573791504,0.2580159902572632
1711795441683325000,11.682324951171875,-0.15766479074954987,0.1415344774723053,0.25127020478248596
1711795441693300700,11.69230078125,-0.15061934292316437,0.12961459159851074,0.22624382376670837
1711795441703276500,11.702276611328125,-0.141921728849411,0.09775014221668243,0.19336125254631042
1711795441713252900,11.7122529296875,-0.13310162723064423,0.08816706389188766,0.1480797827243805
1711795441723227600,11.7222275390625,-0.11437854170799255,0.08834602683782578,0.09143088757991791
1711795441733203700,11.73220361328125,-0.08965640515089035,0.10733477771282196,0.030503802001476288
1711795441743179800,11.7421796875,-0.061500661075115204,0.14621266722679138,-0.01875429041683674
1711795441753155600,11.752155517578124,-0.06425388902425766,0.21087077260017395,-0.044602226465940475
1711795441763131600,11.762131591796875,-0.08326299488544464,0.27879974246025085,-0.0493631586432457
1711795441773106700,11.772106689453125,-0.09691668301820755,0.3081190288066864,-0.020808029919862747
1711795441783082800,11.782082763671875,-0.10389229655265808,0.31093132495880127,0.03232017159461975
1711795441793058600,11.79205859375,-0.10236954689025879,0.30757319927215576,0.08827637135982513
1711795441803035000,11.802034912109375,-0.09191051870584488,0.2954307794570923,0.12796412408351898
1711795441813009700,11.812009765625,-0.06490819901227951,0.2699334919452667,0.1458408236503601
1711795441822985700,11.82198583984375,-0.03262908384203911,0.21553683280944824,0.14004018902778625
1711795441832961800,11.8319619140625,-0.003922584000974894,0.1586838960647583,0.11668240278959274
1711795441842937600,11.8419375,0.02463768795132637,0.12745140492916107,0.06859210878610611
1711795441852913700,11.85191357421875,0.05318005755543709,0.1432913839817047,0.02470751479268074
1711795441862888700,11.861888671875,0.07446563988924026,0.17685706913471222,-0.023526059463620186
1711795441872864800,11.87186474609375,0.08801988512277603,0.20910483598709106,-0.059393104165792465
1711795441882840600,11.881840576171875,0.10019346326589584,0.23484376072883606,-0.08068028837442398
1711795441892817000,11.89181689453125,0.10433223098516464,0.23991452157497406,-0.09015035629272461
1711795441902791700,11.901791748046875,0.11171344667673111,0.22199463844299316,-0.08945260941982269
1711795441912767700,11.911767822265626,0.11999452859163284,0.18017825484275818,-0.09078498929738998
1711795441922743800,11.921743896484376,0.11875908821821213,0.10497990995645523,-0.08164156228303909
1711795441932719600,11.9317197265625,0.1074092909693718,0.07149834930896759,-0.06702643632888794
1711795441942695700,11.94169580078125,0.07927485555410385,0.08415821939706802,-0.06831380724906921
1711795441952670700,11.951670654296874,0.057184964418411255,0.08370137959718704,-0.07387574017047882
1711795441962646800,11.961646728515625,0.04303372651338577,0.07059197127819061,-0.08055014908313751
1711795441972622600,11.97162255859375,0.04177718237042427,0.06290914118289948,-0.09910599887371063
1711795441982598700,11.9815986328125,0.05681392550468445,0.05374999716877937,-0.13166846334934235
1711795441992573200,11.9915732421875,0.07692642509937286,0.042113594710826874,-0.1684584766626358
1711795442002549200,12.00154931640625,0.10464540123939514,0.0464678630232811,-0.192707359790802
1711795442012525300,12.011525390625,0.12244730442762375,0.039362430572509766,-0.18691854178905487
1711795442022501000,12.021501220703126,0.12457811087369919,0.04338247328996658,-0.15826478600502014
1711795442032477200,12.031477294921874,0.1196155771613121,0.05836905166506767,-0.1156403198838234
1711795442042452200,12.0414521484375,0.11777427047491074,0.05790512636303902,-0.06341838836669922
1711795442052428300,12.05142822265625,0.11617322266101837,0.05056510493159294,-0.010701111517846584
1711795442062404000,12.061404052734375,0.12139435112476349,0.04310718923807144,0.03070438653230667
1711795442072380400,12.07138037109375,0.1271597445011139,0.01475575938820839,0.052243672311306
1711795442082355200,12.081355224609375,0.13432179391384125,-0.03914209455251694,0.06426411122083664
1711795442092331300,12.091331298828125,0.13739615678787231,-0.10195225477218628,0.07049670815467834
1711795442102307300,12.101307373046875,0.1388678252696991,-0.13406385481357574,0.05561203882098198
1711795442112283100,12.111283203125,0.13051241636276245,-0.12954020500183105,0.02198590151965618
1711795442122259200,12.12125927734375,0.12816593050956726,-0.10535471141338348,-0.007500617764890194
1711795442132234200,12.131234130859376,0.11564431339502335,-0.0799301266670227,-0.030824044719338417
1711795442142210300,12.141210205078124,0.10934353619813919,-0.08443246781826019,-0.04244474694132805
1711795442152186000,12.15118603515625,0.10831177234649658,-0.10264340043067932,-0.03658841922879219
1711795442162162200,12.161162109375,0.10832082480192184,-0.13684478402137756,-0.017539095133543015
1711795442172137200,12.17113720703125,0.11050351709127426,-0.15025585889816284,0.015683703124523163
1711795442182113300,12.18111328125,0.11024545133113861,-0.17167247831821442,0.04732285812497139
1711795442192089300,12.19108935546875,0.10739089548587799,-0.17868055403232574,0.08260060101747513
1711795442202065200,12.201065185546875,0.09750150889158249,-0.17272280156612396,0.11770878732204437
1711795442212041200,12.211041259765626,0.08725974708795547,-0.14577658474445343,0.13065122067928314
