time,seconds_elapsed,z,y,x
1711795430071476200,0.070476318359375,-44.55397033691406,23.680465698242188,2.1722335815429688
1711795430081452300,0.080452392578125,-44.31773376464844,23.635543823242188,2.2201004028320312
1711795430091428400,0.090428466796875,-44.11228942871094,23.420013427734375,2.295989990234375
1711795430101404400,0.100404296875,-44.22674560546875,23.560775756835938,2.4224891662597656
1711795430111380200,0.110380126953125,-44.17633056640625,23.743743896484375,2.685588836669922
1711795430121356300,0.120356201171875,-44.58831787109375,23.500640869140625,2.657970428466797
1711795430131332400,0.130332275390625,-44.76368713378906,23.538406372070312,2.6095542907714844
1711795430141307400,0.140307373046875,-44.429046630859375,23.613113403320312,2.7780838012695312
1711795430151283200,0.150283203125,-44.208160400390625,23.329345703125,2.994701385498047
1711795430161259500,0.160259521484375,-44.51332092285156,23.326904296875,2.9573211669921875
1711795430171235300,0.1702353515625,-44.72889709472656,23.231048583984375,2.6792526245117188
1711795430181211100,0.180211181640625,-44.43568420410156,23.451690673828125,3.0104331970214844
1711795430191187500,0.1901875,-44.480865478515625,23.261367797851562,2.891063690185547
1711795430201162200,0.200162353515625,-44.31587219238281,23.496612548828125,2.956195831298828
1711795430211138300,0.21013818359375,-44.691650390625,23.5399169921875,2.7768478393554688
1711795430221114400,0.2201142578125,-44.44551086425781,23.387908935546875,2.541149139404297
1711795430231090400,0.23009033203125,-44.32701110839844,23.447662353515625,2.6595726013183594
1711795430241066500,0.24006640625,-44.218414306640625,23.567764282226562,2.5519065856933594
1711795430251042300,0.250042236328125,-44.45045471191406,23.675186157226562,2.734966278076172
1711795430261018400,0.260018310546875,-44.37376403808594,23.603485107421875,2.4860458374023438
1711795430270993200,0.2699931640625,-44.43841552734375,23.677825927734375,2.5062942504882812
1711795430280969500,0.279969482421875,-44.34208679199219,23.819915771484375,2.326343536376953
1711795430290945300,0.2899453125,-44.16502380371094,23.674224853515625,2.3876190185546875
1711795430300921300,0.29992138671875,-44.588653564453125,23.666183471679688,2.0963096618652344
1711795430310897400,0.3098974609375,-44.69831848144531,23.67169189453125,2.2344284057617188
1711795430320873200,0.319873291015625,-44.880706787109375,23.816055297851562,2.1792030334472656
1711795430330849500,0.329849609375,-44.5894775390625,23.4937744140625,2.158966064453125
1711795430340824300,0.33982421875,-44.87750244140625,23.955078125,2.386035919189453
1711795430350800400,0.34980029296875,-44.59356689453125,23.645736694335938,2.4585533142089844
1711795430360776400,0.3597763671875,-44.307769775390625,23.7852783203125,2.3755035400390625
1711795430370752300,0.369752197265625,-44.1048583984375,23.634536743164062,2.6091651916503906
1711795430380728300,0.379728271484375,-44.419769287109375,23.8101806640625,2.4667892456054688
1711795430390704400,0.389704345703125,-44.639892578125,23.74139404296875,2.5234527587890625
1711795430400679400,0.399679443359375,-44.52101135253906,23.576812744140625,2.6373023986816406
1711795430410655200,0.4096552734375,-44.1756591796875,23.719223022460938,2.5400657653808594
1711795430420631300,0.41963134765625,-44.08209228515625,23.771224975585938,2.4942474365234375
1711795430430607400,0.429607421875,-44.02177429199219,23.940292358398438,2.475543975830078
1711795430440583200,0.439583251953125,-44.30711364746094,23.64678955078125,2.3916473388671875
1711795430450559500,0.4495595703125,-44.21128845214844,23.692245483398438,2.4585914611816406
1711795430460535300,0.459535400390625,-44.113616943359375,23.512176513671875,2.4718780517578125
1711795430470510300,0.46951025390625,-44.30763244628906,23.742019653320312,2.585651397705078
1711795430480486400,0.479486328125,-44.24957275390625,23.820724487304688,2.922107696533203
1711795430490462200,0.489462158203125,-44.1666259765625,23.7161865234375,2.5681800842285156
1711795430500438500,0.4994384765625,-43.98388671875,23.6669921875,2.358673095703125
1711795430510414300,0.509414306640625,-43.95137023925781,23.939254760742188,2.4169692993164062
1711795430520390400,0.519390380859375,-44.171356201171875,23.974411010742188,2.365314483642578
1711795430530366500,0.529366455078125,-44.299896240234375,24.187576293945312,2.192169189453125
1711795430540341500,0.539341552734375,-44.15827941894531,24.175094604492188,2.225391387939453
1711795430550317300,0.5493173828125,-44.38960266113281,24.081375122070312,2.3889808654785156
1711795430560293400,0.55929345703125,-44.26564025878906,24.34051513671875,2.600055694580078
1711795430570269400,0.56926953125,-44.02783203125,24.251861572265625,2.1352462768554688
1711795430580245200,0.579245361328125,-44.49595642089844,24.224807739257812,2.2299537658691406
1711795430590221300,0.58922119140625,-44.293487548828125,24.081298828125,2.124420166015625
1711795430600196400,0.5991962890625,-43.809356689453125,23.940216064453125,2.2420883178710938
1711795430610172200,0.609172119140625,-43.74363708496094,24.118789672851562,2.297332763671875
1711795430620148500,0.6191484375,-43.78120422363281,24.286331176757812,2.0729827880859375
1711795430630124300,0.629124267578125,-44.05287170410156,24.184982299804688,2.404712677001953
1711795430640100400,0.639100341796875,-43.9169921875,24.333328247070312,2.2579917907714844
1711795430650076400,0.649076416015625,-44.13800048828125,24.359695434570312,2.2131118774414062
1711795430660052200,0.65905224609375,-43.891632080078125,24.36456298828125,2.2490921020507812
1711795430670027300,0.66902734375,-43.9552001953125,24.3038330078125,2.3182449340820312
1711795430680003300,0.67900341796875,-44.1787109375,24.472457885742188,2.354595184326172
1711795430689979400,0.6889794921875,-44.27972412109375,24.263351440429688,2.159656524658203
1711795430699955200,0.698955078125,-44.237518310546875,24.465164184570312,2.3167724609375
1711795430709931300,0.70893115234375,-44.19374084472656,24.464736938476562,2.6244659423828125
1711795430719907300,0.7189072265625,-43.675811767578125,24.35455322265625,2.422679901123047
1711795430729882400,0.72888232421875,-43.55030822753906,24.38165283203125,2.3342132568359375
1711795430739858400,0.7388583984375,-43.88630676269531,24.489990234375,2.230670928955078
1711795430749834200,0.748834228515625,-43.99494934082031,24.46826171875,2.2958526611328125
1711795430759810600,0.758810546875,-44.059295654296875,24.448867797851562,2.3668136596679688
1711795430769786400,0.768786376953125,-43.95274353027344,24.356887817382812,2.4558753967285156
1711795430779762200,0.77876220703125,-44.1751708984375,24.440277099609375,2.5846328735351562
1711795430789738500,0.788738525390625,-43.83625793457031,24.422988891601562,2.6912918090820312
1711795430799713300,0.79871337890625,-43.70433044433594,24.62115478515625,2.4621200561523438
1711795430809689300,0.808689453125,-43.87416076660156,24.598129272460938,2.711658477783203
1711795430819665400,0.81866552734375,-43.9771728515625,24.717269897460938,2.7856483459472656
1711795430829641200,0.82864111328125,-43.81817626953125,24.8720703125,2.4443626403808594
1711795430839617300,0.8386171875,-43.715667724609375,24.82806396484375,2.2175369262695312
1711795430849593300,0.84859326171875,-43.62968444824219,25.173309326171875,2.414165496826172
1711795430859568400,0.858568359375,-43.65412902832031,25.099197387695312,2.2929611206054688
1711795430869544200,0.868544189453125,-43.391265869140625,24.961654663085938,2.2059478759765625
1711795430879520500,0.8785205078125,-43.27586364746094,24.986892700195312,2.076030731201172
1711795430889496300,0.888496337890625,-43.33818054199219,24.891464233398438,2.0653419494628906
1711795430899472100,0.89847216796875,-43.686065673828125,25.070297241210938,2.2714157104492188
1711795430909448400,0.908448486328125,-43.497955322265625,25.032806396484375,2.0376052856445312
1711795430919424300,0.91842431640625,-43.60829162597656,24.874404907226562,2.0158157348632812
1711795430929399300,0.9283994140625,-43.661895751953125,25.076278686523438,2.06304931640625
1711795430939375400,0.938375244140625,-43.69508361816406,25.178314208984375,1.8973388671875
1711795430949351400,0.948351318359375,-43.49443054199219,25.061386108398438,2.0061988830566406
1711795430959327200,0.9583271484375,-43.29823303222656,25.20111083984375,2.0634117126464844
1711795430969303300,0.96830322265625,-42.95953369140625,25.097427368164062,2.097850799560547
1711795430979280000,0.97827978515625,-43.36357116699219,25.467300415039062,1.8004837036132812
1711795430989255000,0.9882548828125,-43.454559326171875,25.22967529296875,2.0095138549804688
1711795430999231000,0.99823095703125,-43.59327697753906,25.564605712890625,1.9346427917480469
1711795431009206800,1.008206787109375,-43.411163330078125,25.173599243164062,1.8378486633300781
1711795431019182800,1.018182861328125,-43.2686767578125,25.42840576171875,1.8576087951660156
1711795431029159000,1.028158935546875,-43.17063903808594,25.26580810546875,1.9720344543457031
1711795431039135000,1.038135009765625,-43.33123779296875,25.384490966796875,2.158252716064453
1711795431049110800,1.04811083984375,-43.14189147949219,25.358978271484375,1.7901802062988281
1711795431059085800,1.0580859375,-43.493865966796875,25.253829956054688,2.1479225158691406
1711795431069062000,1.068061767578125,-43.23295593261719,25.433609008789062,2.000255584716797
1711795431079038000,1.078037841796875,-43.58515930175781,25.387435913085938,1.99114990234375
1711795431089013800,1.088013671875,-43.26438903808594,25.605010986328125,1.7975387573242188
1711795431098990000,1.097989990234375,-43.64170837402344,25.586822509765625,2.1227798461914062
1711795431108966000,1.1079658203125,-43.44059753417969,25.771347045898438,2.2184600830078125
1711795431118941000,1.11794091796875,-43.70530700683594,25.735198974609375,1.9384613037109375
1711795431128917000,1.1279169921875,-43.45030212402344,25.82440185546875,2.038360595703125
1711795431138892800,1.137892822265625,-43.51631164550781,25.722702026367188,2.3618736267089844
1711795431148868900,1.147868896484375,-43.26788330078125,25.710678100585938,2.187530517578125
1711795431158845000,1.157844970703125,-43.27696228027344,25.821090698242188,2.21466064453125
1711795431168820700,1.16782080078125,-43.35130310058594,25.762008666992188,2.1575088500976562
1711795431178796800,1.177796875,-43.479156494140625,25.706893920898438,2.0606307983398438
1711795431188771800,1.187771728515625,-43.57588195800781,25.69927978515625,2.3838844299316406
1711795431198748000,1.197747802734375,-43.463653564453125,25.766372680664062,2.195476531982422
1711795431208723700,1.2077236328125,-43.32295227050781,25.878463745117188,2.3325347900390625
1711795431218700000,1.217699951171875,-43.20294189453125,25.88897705078125,2.3194503784179688
1711795431228675800,1.22767578125,-43.255401611328125,25.894119262695312,2.093292236328125
1711795431238652000,1.23765185546875,-43.08580017089844,25.873382568359375,2.0104331970214844
1711795431248627000,1.247626953125,-43.20271301269531,25.987167358398438,2.214550018310547
1711795431258602800,1.257602783203125,-43.52403259277344,26.083770751953125,1.8375205993652344
1711795431268578800,1.267578857421875,-43.23674011230469,26.145904541015625,2.0713043212890625
1711795431278555000,1.277554931640625,-43.0850830078125,26.223358154296875,2.111492156982422
1711795431288531000,1.287531005859375,-42.93098449707031,25.9417724609375,2.006999969482422
1711795431298507000,1.297507080078125,-42.85462951660156,26.141098022460938,2.091693878173828
1711795431308482800,1.30748291015625,-43.19612121582031,26.112808227539062,1.8341560363769531
1711795431318457900,1.317457763671875,-42.70372009277344,25.950973510742188,2.1294021606445312
1711795431328434000,1.327433837890625,-42.75697326660156,26.010177612304688,1.96246337890625
1711795431338410000,1.337409912109375,-42.89227294921875,25.882415771484375,1.9732856750488281
1711795431348385800,1.3473857421875,-42.99787902832031,25.96600341796875,1.9398193359375
1711795431358361900,1.35736181640625,-42.730133056640625,25.730010986328125,2.023365020751953
1711795431368338000,1.367337890625,-42.96388244628906,25.774734497070312,1.9841690063476562
1711795431378312700,1.377312744140625,-43.038787841796875,25.952682495117188,1.9552955627441406
1711795431388289000,1.3872890625,-43.0682373046875,25.8294677734375,1.9550018310546875
1711795431398264800,1.397264892578125,-43.08155822753906,26.003570556640625,2.1177520751953125
1711795431408241000,1.407240966796875,-43.340057373046875,25.91925048828125,1.6411666870117188
1711795431418217000,1.417217041015625,-43.38365173339844,25.8331298828125,1.7510566711425781
1711795431428192800,1.42719287109375,-43.19700622558594,25.923126220703125,1.4136581420898438
1711795431438167800,1.437167724609375,-43.3145751953125,25.858062744140625,1.4892387390136719
1711795431448144000,1.447143798828125,-43.12162780761719,25.69580078125,1.5081100463867188
1711795431458120000,1.457119873046875,-43.380279541015625,25.712081909179688,1.4415779113769531
1711795431468095700,1.467095703125,-43.35920715332031,25.929901123046875,1.4001655578613281
1711795431478071800,1.47707177734375,-43.8282470703125,25.7550048828125,1.4554672241210938
1711795431488047900,1.4870478515625,-43.76573181152344,25.851547241210938,1.2513504028320312
1711795431498024000,1.49702392578125,-43.7603759765625,25.740997314453125,1.5747566223144531
1711795431507999000,1.5069990234375,-43.78593444824219,25.692535400390625,1.3234825134277344
1711795431517974800,1.516974853515625,-43.756622314453125,25.525726318359375,1.451873779296875
1711795431527950800,1.526950927734375,-43.82830810546875,25.685165405273438,1.3357887268066406
1711795431537927000,1.536927001953125,-43.606964111328125,25.8209228515625,1.4019088745117188
1711795431547902700,1.54690283203125,-43.81098937988281,25.614974975585938,1.6441001892089844
1711795431557879000,1.556879150390625,-43.94453430175781,25.61492919921875,1.4290199279785156
1711795431567853800,1.566853759765625,-43.65632629394531,25.511993408203125,1.5196266174316406
1711795431577830000,1.576829833984375,-43.41532897949219,25.107528686523438,1.5507278442382812
1711795431587806000,1.586805908203125,-43.99169921875,25.306488037109375,1.8390617370605469
1711795431597782000,1.596781982421875,-44.165924072265625,25.216033935546875,1.7203254699707031
1711795431607757800,1.6067578125,-44.00865173339844,25.02911376953125,1.5930709838867188
1711795431617734000,1.61673388671875,-44.22015380859375,24.867935180664062,1.1408538818359375
1711795431627709000,1.626708984375,-44.32804870605469,24.774185180664062,1.3735237121582031
1711795431637684700,1.636684814453125,-44.35957336425781,24.237319946289062,1.2468147277832031
1711795431647661000,1.6466611328125,-44.49017333984375,24.435256958007812,1.1327133178710938
1711795431657636900,1.656636962890625,-44.95765686035156,24.245101928710938,1.3662948608398438
1711795431667612700,1.66661279296875,-44.743621826171875,24.195755004882812,1.261383056640625
1711795431677589000,1.676589111328125,-44.65434265136719,24.142349243164062,1.150909423828125
1711795431687564800,1.686564697265625,-44.37348937988281,23.899505615234375,1.1506843566894531
1711795431697539800,1.696539794921875,-44.96113586425781,23.960693359375,0.986663818359375
1711795431707516000,1.706515869140625,-45.15093994140625,23.966156005859375,1.0565299987792969
1711795431717492000,1.716491943359375,-44.78059387207031,23.89520263671875,1.0802688598632812
1711795431727467800,1.7264677734375,-44.779815673828125,23.885894775390625,1.0342025756835938
1711795431737443800,1.73644384765625,-44.77130126953125,23.676483154296875,1.032958984375
1711795431747420000,1.746419921875,-44.80821228027344,23.836898803710938,1.140716552734375
1711795431757394700,1.756394775390625,-45.18809509277344,23.503097534179688,1.0081367492675781
1711795431767371000,1.76637109375,-45.619476318359375,23.360458374023438,0.9919929504394531
1711795431777346800,1.776346923828125,-45.4515380859375,22.995193481445312,1.5417594909667969
1711795431787323000,1.786322998046875,-45.70684814453125,22.664337158203125,1.6281585693359375
1711795431797299000,1.796298828125,-45.46177673339844,22.400283813476562,1.6003189086914062
1711795431807274800,1.806274658203125,-45.9014892578125,22.450271606445312,1.8529472351074219
1711795431817249800,1.816249755859375,-45.740997314453125,22.302810668945312,1.8110580444335938
1711795431827225900,1.826225830078125,-45.69142150878906,22.279342651367188,1.9170417785644531
1711795431837202000,1.836201904296875,-45.61082458496094,21.97271728515625,1.6370811462402344
1711795431847178000,1.846177978515625,-45.75225830078125,21.695144653320312,1.7867355346679688
1711795431857153800,1.85615380859375,-45.96209716796875,21.453857421875,2.2520065307617188
1711795431867129900,1.8661298828125,-45.96142578125,21.406784057617188,2.0581512451171875
1711795431877105000,1.87610498046875,-46.26438903808594,21.4423828125,1.9030189514160156
1711795431887081000,1.8860810546875,-46.219573974609375,21.3319091796875,2.0362281799316406
1711795431897056800,1.896056884765625,-45.96507263183594,21.008026123046875,2.050628662109375
1711795431907033000,1.906033203125,-46.22978210449219,21.297348022460938,1.8971023559570312
1711795431917009000,1.9160087890625,-46.21815490722656,21.40277099609375,1.96746826171875
1711795431926984700,1.925984619140625,-46.13847351074219,21.240585327148438,1.98785400390625
1711795431936961000,1.9359609375,-45.8421630859375,21.529388427734375,1.9029541015625
1711795431946935800,1.945935791015625,-45.97538757324219,21.481613159179688,1.6465301513671875
1711795431956911900,1.955911865234375,-46.05357360839844,21.472885131835938,1.7138557434082031
1711795431966888000,1.965887939453125,-46.117706298828125,21.248260498046875,1.9117889404296875
1711795431976863700,1.97586376953125,-45.98045349121094,21.319427490234375,1.9102210998535156
1711795431986839300,1.98583935546875,-45.70811462402344,21.1514892578125,1.8839836120605469
1711795431996815000,1.995815185546875,-46.24263000488281,21.251983642578125,1.8898963928222656
1711795432006790100,2.0057900390625,-46.203826904296875,21.509506225585938,2.0524826049804688
1711795432016766200,2.01576611328125,-45.92364501953125,21.530197143554688,1.9404182434082031
1711795432026742300,2.0257421875,-45.87342834472656,21.675201416015625,2.3082237243652344
1711795432036718000,2.035718017578125,-45.97700500488281,21.762420654296875,2.1227569580078125
1711795432046694400,2.0456943359375,-45.98497009277344,21.66949462890625,2.3428611755371094
1711795432056670200,2.055670166015625,-46.18867492675781,22.077377319335938,2.095611572265625
1711795432066645200,2.065645263671875,-45.69950866699219,21.995101928710938,2.02252197265625
1711795432076621300,2.075621337890625,-45.42364501953125,22.098297119140625,2.2755279541015625
1711795432086597000,2.08559716796875,-45.27458190917969,22.042938232421875,2.0353164672851562
1711795432096573200,2.0955732421875,-45.52549743652344,21.840011596679688,1.9971885681152344
1711795432106549200,2.10554931640625,-45.63543701171875,21.973312377929688,2.0257530212402344
1711795432116525000,2.115525146484375,-45.253265380859375,22.01824951171875,2.0487709045410156
1711795432126500000,2.1255,-45.161956787109375,21.859786987304688,2.196674346923828
1711795432136476200,2.13547607421875,-45.28889465332031,21.8692626953125,2.3298416137695312
1711795432146452200,2.1454521484375,-44.95732116699219,22.011306762695312,2.1343460083007812
1711795432156428000,2.155427978515625,-45.05119323730469,22.178848266601562,2.061687469482422
1711795432166404400,2.165404296875,-44.958740234375,22.3665771484375,1.9488334655761719
1711795432176380200,2.175380126953125,-44.86280822753906,22.494918823242188,2.0304183959960938
1711795432186355200,2.185355224609375,-45.32557678222656,22.503311157226562,1.6787147521972656
1711795432196331300,2.195331298828125,-45.223388671875,22.623138427734375,1.8283653259277344
1711795432206307000,2.20530712890625,-45.108673095703125,22.83575439453125,2.1050949096679688
1711795432216283400,2.215283447265625,-45.150787353515625,22.807052612304688,1.9798660278320312
1711795432226259200,2.22525927734375,-45.15577697753906,22.814468383789062,2.0145034790039062
1711795432236235300,2.2352353515625,-45.07063293457031,22.748367309570312,1.869659423828125
1711795432246210000,2.2452099609375,-45.08709716796875,22.931442260742188,2.119640350341797
1711795432256186400,2.255186279296875,-45.127288818359375,22.925857543945312,1.9772834777832031
1711795432266162200,2.265162109375,-45.09623718261719,22.858306884765625,1.6796417236328125
1711795432276138200,2.27513818359375,-45.39320373535156,22.924560546875,1.7939376831054688
1711795432286114300,2.2851142578125,-45.51875305175781,22.855178833007812,2.1683349609375
1711795432296090000,2.295090087890625,-45.266937255859375,23.0809326171875,1.9740562438964844
1711795432306066200,2.305066162109375,-45.28837585449219,23.061264038085938,2.0109825134277344
1711795432316041200,2.315041259765625,-45.28697204589844,23.221832275390625,1.83123779296875
1711795432326017000,2.32501708984375,-44.947235107421875,23.114791870117188,2.247547149658203
1711795432335993300,2.334993408203125,-45.46592712402344,23.224899291992188,2.2656593322753906
1711795432345969200,2.34496923828125,-45.20552062988281,22.940750122070312,2.2586097717285156
1711795432355945200,2.3549453125,-45.537689208984375,23.031951904296875,2.0990982055664062
1711795432365921300,2.36492138671875,-45.61354064941406,23.222625732421875,2.4173202514648438
1711795432375896300,2.374896240234375,-45.521026611328125,23.035385131835938,2.547229766845703
1711795432385872100,2.3848720703125,-45.32743835449219,23.246353149414062,2.48211669921875
1711795432395848200,2.39484814453125,-45.254638671875,23.275314331054688,2.7477645874023438
1711795432405824300,2.40482421875,-45.57844543457031,23.246307373046875,2.6486244201660156
1711795432415800300,2.41480029296875,-45.38694763183594,23.22332763671875,2.5643463134765625
1711795432425776000,2.424776123046875,-45.752716064453125,22.998031616210938,2.723278045654297
1711795432435751200,2.434751220703125,-45.6241455078125,23.069244384765625,2.5664329528808594
1711795432445727200,2.444727294921875,-45.58424377441406,22.993972778320312,2.8915863037109375
1711795432455703300,2.454703369140625,-45.55461120605469,22.98114013671875,2.7631874084472656
1711795432465679000,2.46467919921875,-45.694244384765625,23.002120971679688,2.8662490844726562
1711795432475655400,2.474655517578125,-45.761322021484375,23.009323120117188,2.8552474975585938
1711795432485631200,2.48463134765625,-45.58189392089844,22.674652099609375,3.008441925048828
1711795432495606300,2.494606201171875,-45.20115661621094,22.846878051757812,2.9202651977539062
1711795432505582300,2.504582275390625,-45.448028564453125,22.768844604492188,3.0651206970214844
1711795432515558100,2.51455810546875,-45.55412292480469,22.847488403320312,3.0564613342285156
1711795432525534200,2.5245341796875,-45.71669006347656,22.358291625976562,2.919971466064453
1711795432535510300,2.53451025390625,-45.748138427734375,22.507369995117188,2.9003257751464844
1711795432545486300,2.544486328125,-45.819915771484375,22.47308349609375,3.31011962890625
1711795432555461000,2.554461181640625,-45.86773681640625,22.482772827148438,3.371471405029297
1711795432565437400,2.5644375,-45.63029479980469,22.253082275390625,3.621826171875
1711795432575413200,2.574413330078125,-45.55659484863281,21.952438354492188,3.7951889038085938
1711795432585389000,2.58438916015625,-46.08331298828125,21.960662841796875,3.8889236450195312
1711795432595365400,2.594365478515625,-46.34764099121094,21.7509765625,3.994373321533203
1711795432605341200,2.604341064453125,-46.21014404296875,21.441558837890625,4.364494323730469
1711795432615316200,2.614316162109375,-46.342987060546875,21.341278076171875,4.465641021728516
1711795432625292300,2.624292236328125,-46.37120056152344,20.939926147460938,4.610260009765625
1711795432635268000,2.63426806640625,-46.42718505859375,20.810379028320312,4.639980316162109
1711795432645244200,2.644244140625,-46.28216552734375,20.614120483398438,4.704074859619141
1711795432655220200,2.65422021484375,-46.426239013671875,20.530792236328125,4.735973358154297
1711795432665196300,2.6641962890625,-46.4112548828125,20.41937255859375,4.844856262207031
1711795432675171000,2.674171142578125,-46.54425048828125,20.516998291015625,5.055751800537109
1711795432685147400,2.6841474609375,-46.19294738769531,20.682571411132812,5.181587219238281
1711795432695123200,2.694123291015625,-46.15289306640625,20.57598876953125,4.814002990722656
1711795432705099000,2.70409912109375,-46.37565612792969,20.521499633789062,4.7758636474609375
1711795432715075300,2.714075439453125,-46.41026306152344,20.4154052734375,4.550792694091797
1711795432725051100,2.724051025390625,-46.4537353515625,20.391403198242188,4.624691009521484
1711795432735026200,2.734026123046875,-46.560638427734375,20.451751708984375,4.592517852783203
1711795432745002200,2.744002197265625,-46.482452392578125,20.52020263671875,4.620990753173828
1711795432754978300,2.753978271484375,-46.41810607910156,20.326248168945312,4.777332305908203
1711795432764954400,2.763954345703125,-46.64042663574219,20.390457153320312,4.638866424560547
1711795432774930200,2.77393017578125,-46.53910827636719,20.556915283203125,4.64276123046875
1711795432784906200,2.78390625,-46.273681640625,20.514114379882812,4.7709197998046875
1711795432794881000,2.793881103515625,-46.64796447753906,20.305908203125,4.451927185058594
1711795432804857300,2.803857421875,-46.985382080078125,20.155838012695312,4.62890625
1711795432814833200,2.813833251953125,-46.90080261230469,20.066314697265625,4.575290679931641
1711795432824809200,2.823809326171875,-47.001434326171875,20.0001220703125,4.592311859130859
1711795432834785300,2.833785400390625,-46.90675354003906,19.78106689453125,4.886188507080078
1711795432844761000,2.843760986328125,-46.32342529296875,19.653228759765625,4.651432037353516
1711795432854736400,2.853736328125,-46.37071228027344,19.642318725585938,4.540309906005859
1711795432864712200,2.863712158203125,-46.723358154296875,19.656295776367188,4.409488677978516
1711795432874688300,2.873688232421875,-46.85650634765625,19.538818359375,4.700717926025391
1711795432884664300,2.883664306640625,-46.81822204589844,19.311965942382812,4.766685485839844
1711795432894640000,2.89364013671875,-46.48176574707031,19.462158203125,4.444358825683594
1711795432904616200,2.9036162109375,-46.44384765625,19.248275756835938,4.4553070068359375
1711795432914591200,2.91359130859375,-46.85969543457031,19.695297241210938,4.432769775390625
1711795432924567300,2.9235673828125,-46.657196044921875,19.61749267578125,4.431529998779297
1711795432934543000,2.933543212890625,-46.613739013671875,19.964691162109375,4.662715911865234
1711795432944519200,2.943519287109375,-46.495513916015625,19.943801879882812,4.553028106689453
1711795432954495200,2.9534951171875,-46.31346130371094,19.906097412109375,4.669712066650391
1711795432964471000,2.963470947265625,-46.42231750488281,20.117385864257812,4.835060119628906
1711795432974446300,2.9734462890625,-46.78851318359375,20.321533203125,4.651802062988281
1711795432984422000,2.983421875,-46.68263244628906,20.234649658203125,4.546474456787109
1711795432994398000,2.99339794921875,-46.83311462402344,20.339920043945312,4.557289123535156
1711795433004373800,3.003373779296875,-46.59931945800781,20.175247192382812,4.527378082275391
1711795433014349800,3.013349853515625,-46.562530517578125,20.02471923828125,4.480945587158203
1711795433024326000,3.023325927734375,-46.56683349609375,20.333206176757812,4.394691467285156
1711795433034301000,3.033301025390625,-46.7421875,20.47857666015625,4.254222869873047
1711795433044277000,3.043277099609375,-46.61723327636719,20.53729248046875,4.264732360839844
1711795433054252800,3.053252685546875,-46.840362548828125,20.4053955078125,4.192207336425781
1711795433064228900,3.063228759765625,-46.79319763183594,20.324310302734375,4.3485565185546875
1711795433074205000,3.073204833984375,-46.355316162109375,20.475479125976562,4.363712310791016
1711795433084180700,3.0831806640625,-46.21641540527344,20.412002563476562,4.2188262939453125
1711795433094155800,3.09315576171875,-46.76789855957031,20.349456787109375,4.279655456542969
1711795433104131800,3.1031318359375,-46.55255126953125,20.626846313476562,3.9666404724121094
1711795433114108000,3.11310791015625,-46.663543701171875,20.623733520507812,3.9570960998535156
1711795433124084000,3.123083984375,-46.725433349609375,20.647842407226562,3.966705322265625
1711795433134060000,3.13306005859375,-46.5257568359375,20.65875244140625,3.6012115478515625
1711795433144035800,3.143035888671875,-47.03819274902344,20.890304565429688,3.5361366271972656
1711795433154011000,3.153010986328125,-46.372772216796875,20.62872314453125,3.717815399169922
1711795433163987000,3.162987060546875,-46.80950927734375,20.814071655273438,3.7005882263183594
1711795433173962800,3.172962646484375,-46.45356750488281,20.680206298828125,3.838390350341797
1711795433183939000,3.18293896484375,-46.3741455078125,20.773880004882812,3.717853546142578
1711795433193915000,3.192914794921875,-46.215301513671875,21.137237548828125,3.7049331665039062
1711795433203890000,3.202889892578125,-46.14329528808594,21.148040771484375,3.6644134521484375
1711795433213866000,3.212865966796875,-46.37687683105469,20.969940185546875,3.519878387451172
1711795433223841800,3.222841796875,-46.464569091796875,20.999603271484375,3.4613990783691406
1711795433233817900,3.23281787109375,-46.21852111816406,21.002838134765625,3.5148468017578125
1711795433243794000,3.2427939453125,-46.15068054199219,21.018569946289062,3.291217803955078
1711795433253770000,3.25277001953125,-46.386810302734375,20.799713134765625,3.150482177734375
1711795433263744800,3.262744873046875,-46.441650390625,20.762939453125,3.3581771850585938
1711795433273721000,3.27272119140625,-46.454925537109375,20.86920166015625,3.1327171325683594
1711795433283697000,3.28269677734375,-46.11006164550781,20.698760986328125,3.0665321350097656
1711795433293672700,3.292672607421875,-46.35508728027344,20.884109497070312,3.1148719787597656
1711795433303649000,3.30264892578125,-46.2486572265625,21.004653930664062,3.0389862060546875
1711795433313624800,3.312624755859375,-46.2723388671875,20.682769775390625,2.9875755310058594
1711795433323600000,3.322599853515625,-46.48970031738281,20.974441528320312,3.082805633544922
1711795433333576000,3.332575927734375,-46.357666015625,20.6707763671875,2.8280029296875
1711795433343552000,3.342552001953125,-46.279632568359375,20.943679809570312,2.7582664489746094
1711795433353527800,3.35252783203125,-46.43327331542969,20.85528564453125,2.4934654235839844
1711795433363503900,3.36250390625,-46.29200744628906,20.711288452148438,2.769268035888672
1711795433373480000,3.37247998046875,-46.50175476074219,20.856552124023438,2.468017578125
1711795433383454700,3.382454833984375,-46.514678955078125,20.890121459960938,2.2671890258789062
1711795433393431000,3.39243115234375,-46.54289245605469,20.824783325195312,2.3477706909179688
1711795433403406800,3.40240673828125,-46.2020263671875,20.67864990234375,2.365509033203125
1711795433413382700,3.412382568359375,-46.17744445800781,20.82073974609375,2.3743019104003906
1711795433423359000,3.42235888671875,-46.24787902832031,20.763473510742188,2.239490509033203
1711795433433334800,3.432334716796875,-46.55218505859375,20.805221557617188,2.4367027282714844
1711795433443309800,3.442309814453125,-46.60804748535156,20.6961669921875,2.4153709411621094
1711795433453286000,3.452285888671875,-46.846710205078125,20.630661010742188,2.1992874145507812
1711795433463262000,3.462261962890625,-46.676910400390625,20.509597778320312,2.2553939819335938
1711795433473238000,3.472238037109375,-46.76606750488281,20.3880615234375,2.0529022216796875
1711795433483213800,3.4822138671875,-46.73292541503906,20.569961547851562,2.4112701416015625
1711795433493190000,3.49218994140625,-47.212493896484375,20.314987182617188,2.5891189575195312
1711795433503164700,3.50216455078125,-46.601348876953125,19.977066040039062,2.3831443786621094
1711795433513141000,3.51214111328125,-46.70472717285156,19.991775512695312,2.27001953125
1711795433523116800,3.52211669921875,-46.55430603027344,19.928970336914062,2.446666717529297
1711795433533092900,3.5320927734375,-46.8388671875,19.765411376953125,2.3785057067871094
1711795433543069000,3.54206884765625,-46.808349609375,19.836196899414062,2.4989051818847656
1711795433553044700,3.552044677734375,-46.941680908203125,19.791091918945312,2.5600051879882812
1711795433563020000,3.56202001953125,-46.9061279296875,19.663589477539062,2.7837295532226562
1711795433572995800,3.571995849609375,-46.73915100097656,19.380035400390625,3.004222869873047
1711795433582972000,3.581971923828125,-46.94712829589844,19.4302978515625,3.2033920288085938
1711795433592948000,3.591947998046875,-47.13691711425781,19.174102783203125,3.2304763793945312
1711795433602923800,3.601923828125,-47.43147277832031,19.04534912109375,3.4628028869628906
1711795433612899800,3.61189990234375,-47.2198486328125,19.081832885742188,3.324596405029297
1711795433622875000,3.621875,-47.800048828125,18.88671875,3.484020233154297
1711795433632851000,3.631850830078125,-47.688995361328125,18.514389038085938,3.531871795654297
1711795433642826800,3.64182666015625,-47.92051696777344,18.524459838867188,3.5420303344726562
1711795433652803000,3.651802978515625,-47.7406005859375,18.598739624023438,3.3094444274902344
1711795433662779000,3.66177880859375,-48.05259704589844,18.645401000976562,3.4355201721191406
1711795433672754000,3.67175390625,-47.48750305175781,18.553802490234375,3.2548751831054688
1711795433682730000,3.68172998046875,-47.677032470703125,18.29058837890625,3.3077964782714844
1711795433692705800,3.691705810546875,-47.66496276855469,18.207565307617188,3.2943344116210938
1711795433702681900,3.701681884765625,-47.97442626953125,18.140243530273438,3.4479217529296875
1711795433712658000,3.711657958984375,-47.86585998535156,18.087066650390625,3.6320457458496094
1711795433722633700,3.7216337890625,-47.899627685546875,18.343490600585938,3.6108970642089844
1711795433732608800,3.73160888671875,-47.76966857910156,18.365875244140625,3.5186233520507812
1711795433742584800,3.741584716796875,-47.94169616699219,18.196792602539062,3.5868797302246094
1711795433752561000,3.751560791015625,-48.12974548339844,18.169143676757812,3.55902099609375
1711795433762536700,3.76153662109375,-48.14396667480469,18.235626220703125,3.99853515625
1711795433772513000,3.771512939453125,-48.21034240722656,18.248382568359375,3.6157493591308594
1711795433782488800,3.78148876953125,-48.228515625,18.180816650390625,3.6934471130371094
1711795433792464000,3.7914638671875,-47.92039489746094,18.149795532226562,3.4672775268554688
1711795433802440000,3.80143994140625,-47.67633056640625,17.983871459960938,3.5751380920410156
1711795433812415700,3.811415771484375,-47.3157958984375,17.958877563476562,3.3747329711914062
1711795433822392000,3.82139208984375,-47.40338134765625,17.940261840820312,3.8352890014648438
1711795433832367900,3.831367919921875,-47.533782958984375,17.868515014648438,3.9012451171875
1711795433842343000,3.841343017578125,-47.39947509765625,18.109710693359375,3.9258651733398438
1711795433852318700,3.851318603515625,-47.83638000488281,18.027313232421875,4.054924011230469
1711795433862295000,3.861294921875,-47.90653991699219,17.988510131835938,4.3765411376953125
1711795433872270800,3.871270751953125,-47.86102294921875,18.171844482421875,4.436859130859375
1711795433882247000,3.881246826171875,-47.609893798828125,18.318038940429688,4.529018402099609
1711795433892223000,3.891222900390625,-47.770355224609375,18.25830078125,4.535388946533203
1711795433902197800,3.90119775390625,-47.68096923828125,18.16510009765625,4.53924560546875
1711795433912174000,3.911174072265625,-47.48980712890625,18.146896362304688,4.506492614746094
1711795433922150000,3.92114990234375,-47.66069030761719,18.240463256835938,4.532463073730469
1711795433932125700,3.931125732421875,-47.91802978515625,18.501632690429688,4.6948699951171875
1711795433942102000,3.94110205078125,-47.76405334472656,18.478988647460938,4.6638641357421875
1711795433952077800,3.951077880859375,-48.19415283203125,18.31292724609375,4.620586395263672
1711795433962052900,3.961052978515625,-47.95368957519531,18.2303466796875,4.694202423095703
1711795433972029000,3.97102880859375,-47.83876037597656,18.354202270507812,4.375328063964844
1711795433982005500,3.981005615234375,-47.70951843261719,18.228668212890625,4.7454681396484375
1711795433991981600,3.990981689453125,-47.84637451171875,18.309188842773438,4.844154357910156
1711795434001957400,4.000957275390625,-47.912506103515625,18.347274780273438,4.54144287109375
1711795434011933400,4.010933349609375,-48.206695556640625,18.47607421875,4.8524017333984375
1711795434021908500,4.020908447265625,-48.063232421875,18.528640747070312,4.973640441894531
1711795434031884500,4.030884521484375,-47.60162353515625,18.516204833984375,4.629417419433594
1711795434041860600,4.040860595703125,-47.415740966796875,18.49078369140625,4.443290710449219
1711795434051836400,4.05083642578125,-47.21702575683594,18.4200439453125,4.700187683105469
1711795434061812500,4.0608125,-47.678558349609375,18.56988525390625,4.748851776123047
1711795434071787500,4.07078759765625,-47.608978271484375,18.57763671875,4.731010437011719
1711795434081763600,4.080763671875,-47.89848327636719,18.320022583007812,4.777610778808594
1711795434091739400,4.090739501953125,-47.811431884765625,18.143341064453125,4.898723602294922
1711795434101715500,4.100715576171875,-47.896942138671875,17.925460815429688,4.963890075683594
1711795434111691500,4.11069140625,-47.84820556640625,17.87213134765625,5.058967590332031
1711795434121667600,4.12066748046875,-48.139251708984375,17.86505126953125,5.081890106201172
1711795434131642600,4.130642578125,-48.22615051269531,18.047683715820312,4.949485778808594
1711795434141618400,4.140618408203125,-48.00459289550781,17.834747314453125,5.237098693847656
1711795434151594500,4.150594482421875,-48.1890869140625,17.940277099609375,5.016082763671875
1711795434161570600,4.160570556640625,-47.70906066894531,18.067825317382812,5.303802490234375
1711795434171546400,4.17054638671875,-47.83815002441406,17.860305786132812,5.306262969970703
1711795434181522700,4.180522705078125,-48.3489990234375,17.971969604492188,5.0553741455078125
1711795434191497500,4.19049755859375,-48.25933837890625,17.647491455078125,5.3223876953125
1711795434201473500,4.2004736328125,-48.406219482421875,17.505599975585938,5.397125244140625
1711795434211449600,4.21044970703125,-48.62745666503906,17.646713256835938,4.990760803222656
1711795434221425400,4.22042529296875,-48.417755126953125,17.639923095703125,5.114429473876953
1711795434231401500,4.2304013671875,-48.545257568359375,17.769622802734375,4.8902740478515625
1711795434241377500,4.24037744140625,-48.0172119140625,17.755889892578125,4.900135040283203
1711795434251352600,4.2503525390625,-48.048370361328125,17.80120849609375,4.771110534667969
1711795434261328400,4.260328369140625,-47.82081604003906,18.020416259765625,4.786960601806641
1711795434271304700,4.2703046875,-47.44366455078125,18.058212280273438,4.668678283691406
1711795434281280500,4.280280517578125,-47.69947814941406,18.116653442382812,4.949981689453125
1711795434291256300,4.29025634765625,-48.02046203613281,18.42950439453125,5.125648498535156
1711795434301231600,4.300231689453125,-48.16778564453125,18.524337768554688,5.400371551513672
1711795434311207400,4.31020751953125,-48.04718017578125,18.626708984375,4.943031311035156
1711795434321183500,4.32018359375,-48.23323059082031,18.792770385742188,4.996990203857422
1711795434331159600,4.33015966796875,-48.264892578125,18.84661865234375,4.5596160888671875
1711795434341135600,4.340135498046875,-48.07176208496094,18.90692138671875,4.579967498779297
1711795434351111400,4.350111328125,-47.99040222167969,18.867050170898438,4.5511016845703125
1711795434361086700,4.360086669921875,-47.95960998535156,18.811752319335938,4.688594818115234
1711795434371062500,4.3700625,-47.869110107421875,18.632232666015625,4.499713897705078
1711795434381038300,4.380038330078125,-48.11396789550781,18.70697021484375,4.640281677246094
1711795434391014700,4.3900146484375,-48.31730651855469,18.185546875,4.654045104980469
1711795434400990500,4.399990478515625,-48.367919921875,18.490707397460938,4.588069915771484
1711795434410965500,4.409965576171875,-48.65660095214844,18.502365112304688,4.573833465576172
1711795434420941600,4.419941650390625,-48.849761962890625,18.493118286132812,4.316181182861328
1711795434430917400,4.42991748046875,-48.78642272949219,18.248245239257812,4.121910095214844
1711795434440893400,4.4398935546875,-48.341156005859375,18.03118896484375,4.413475036621094
1711795434450869500,4.449869384765625,-48.539276123046875,17.907730102539062,4.309349060058594
1711795434460845600,4.459845458984375,-48.348052978515625,17.681838989257812,4.419578552246094
1711795434470820400,4.4698203125,-48.6741943359375,17.6043701171875,4.244781494140625
1711795434480796700,4.479796630859375,-48.27836608886719,17.487686157226562,4.3807220458984375
1711795434490772500,4.4897724609375,-48.1151123046875,17.136520385742188,4.348384857177734
1711795434500748300,4.499748291015625,-48.25263977050781,17.304244995117188,4.336143493652344
1711795434510724600,4.509724609375,-48.624969482421875,17.293792724609375,4.3823394775390625
1711795434520700400,4.519700439453125,-48.549224853515625,17.399856567382812,4.253273010253906
1711795434530675500,4.529675537109375,-48.78474426269531,17.30712890625,4.143623352050781
1711795434540651500,4.539651611328125,-48.68013000488281,17.540069580078125,3.938873291015625
1711795434550627600,4.549627685546875,-48.84559631347656,17.664199829101562,3.8389205932617188
1711795434560603600,4.559603759765625,-48.58073425292969,17.793060302734375,3.7357521057128906
1711795434570579500,4.569579345703125,-47.98051452636719,17.792724609375,3.722209930419922
1711795434580555500,4.579555419921875,-48.162750244140625,17.798614501953125,3.6864471435546875
1711795434590530300,4.5895302734375,-47.99745178222656,17.667022705078125,3.458538055419922
1711795434600506600,4.599506591796875,-48.35020446777344,17.589309692382812,3.6297950744628906
1711795434610482400,4.609482421875,-48.62646484375,17.617523193359375,3.5437698364257812
1711795434620458500,4.61945849609375,-48.51939392089844,17.57403564453125,3.180583953857422
1711795434630434600,4.6294345703125,-48.46638488769531,17.590835571289062,3.4858016967773438
1711795434640409300,4.639409423828125,-48.52561950683594,17.376556396484375,3.7680892944335938
1711795434650385700,4.6493857421875,-48.785858154296875,17.372482299804688,3.4991073608398438
1711795434660361500,4.659361572265625,-48.51939392089844,17.462677001953125,3.5914878845214844
1711795434670337500,4.669337646484375,-48.54150390625,17.478683471679688,3.659862518310547
1711795434680313600,4.679313720703125,-48.79286193847656,17.43426513671875,3.6780471801757812
1711795434690289400,4.689289306640625,-48.49955749511719,17.443450927734375,3.602802276611328
1711795434700264400,4.699264404296875,-48.61497497558594,17.361541748046875,3.784687042236328
1711795434710240500,4.709240478515625,-48.71226501464844,17.692733764648438,3.7783355712890625
1711795434720216600,4.719216552734375,-48.287200927734375,18.009902954101562,3.9967575073242188
1711795434730192400,4.7291923828125,-48.3558349609375,18.10955810546875,4.010871887207031
1711795434740168400,4.73916845703125,-48.272247314453125,18.487472534179688,4.125118255615234
1711795434750143500,4.7491435546875,-48.142059326171875,18.617935180664062,3.893260955810547
1711795434760119600,4.75911962890625,-48.32933044433594,18.546035766601562,3.6246376037597656
1711795434770095600,4.769095703125,-48.36198425292969,18.392822265625,3.4382705688476562
1711795434780071400,4.779071533203125,-47.79704284667969,18.588607788085938,3.4824256896972656
1711795434790047500,4.789047607421875,-48.07322692871094,18.739456176757812,3.178874969482422
1711795434800023600,4.7990234375,-47.9713134765625,18.610671997070312,3.2802810668945312
1711795434809998600,4.80899853515625,-48.02131652832031,18.794921875,3.3180084228515625
1711795434819974400,4.818974365234375,-48.01542663574219,18.724822998046875,3.3413429260253906
1711795434829950500,4.828950439453125,-48.0806884765625,18.626434326171875,3.2926177978515625
1711795434839926500,4.838926513671875,-47.900482177734375,18.3729248046875,3.433917999267578
1711795434849902300,4.84890234375,-48.28300476074219,18.2733154296875,3.3906593322753906
1711795434859877600,4.858877685546875,-48.59715270996094,18.445281982421875,3.3813629150390625
1711795434869853400,4.868853515625,-48.43696594238281,18.519241333007812,3.3397254943847656
1711795434879829500,4.87882958984375,-48.930328369140625,18.354293823242188,3.004192352294922
1711795434889805600,4.8888056640625,-48.776947021484375,18.334823608398438,2.986713409423828
1711795434899781400,4.898781494140625,-48.79066467285156,18.491958618164062,2.8161964416503906
1711795434909757700,4.9087578125,-48.91981506347656,18.52789306640625,3.0824966430664062
1711795434919732500,4.918732421875,-48.98692321777344,18.455596923828125,2.9874420166015625
1711795434929708500,4.92870849609375,-48.92375183105469,18.364227294921875,2.8668365478515625
1711795434939684400,4.938684326171875,-49.14912414550781,18.320526123046875,2.640399932861328
1711795434949660400,4.948660400390625,-49.28114318847656,18.256484985351562,2.7591896057128906
1711795434959636500,4.958636474609375,-49.16905212402344,18.4361572265625,2.5391921997070312
1711795434969611500,4.968611572265625,-49.098541259765625,18.620681762695312,2.4344215393066406
1711795434979587600,4.978587646484375,-49.003173828125,18.284317016601562,2.50152587890625
1711795434989564200,4.988564208984375,-48.89756774902344,18.141738891601562,2.512523651123047
1711795434999540000,4.9985400390625,-48.992401123046875,18.1212158203125,2.56854248046875
1711795435009516000,5.00851611328125,-48.91993713378906,18.006637573242188,2.3762283325195312
1711795435019492000,5.0184921875,-48.75987243652344,17.821792602539062,2.4140853881835938
1711795435029467100,5.028467041015625,-48.805572509765625,17.6910400390625,2.5543136596679688
1711795435039443000,5.03844287109375,-48.83238220214844,17.712554931640625,2.7481040954589844
1711795435049419300,5.048419189453125,-49.42182922363281,17.6810302734375,2.7733497619628906
1711795435059395000,5.05839501953125,-49.392333984375,17.474746704101562,2.445545196533203
1711795435069371000,5.068370849609375,-48.97633361816406,17.573501586914062,2.6754150390625
1711795435079347200,5.07834716796875,-49.19392395019531,17.41912841796875,2.779918670654297
1711795435089322000,5.088322021484375,-49.19920349121094,17.36517333984375,2.3621063232421875
1711795435099298000,5.098298095703125,-49.21333312988281,17.284011840820312,2.4356651306152344
1711795435109274000,5.108274169921875,-49.35107421875,17.222198486328125,2.2366104125976562
1711795435119250200,5.118250244140625,-49.59161376953125,17.057693481445312,2.4451942443847656
1711795435129226200,5.128226318359375,-49.84132385253906,16.965057373046875,2.255237579345703
1711795435139201300,5.138201171875,-49.29388427734375,16.907455444335938,2.1107254028320312
1711795435149177000,5.148177001953125,-49.645782470703125,16.756332397460938,2.6001548767089844
1711795435159153000,5.15815283203125,-49.50244140625,16.629562377929688,2.482105255126953
1711795435169129200,5.168129150390625,-49.61631774902344,16.498138427734375,2.4875869750976562
1711795435179105000,5.17810498046875,-49.74168395996094,16.450210571289062,2.3772048950195312
1711795435189081000,5.1880810546875,-49.92875671386719,16.510940551757812,2.6339378356933594
1711795435199056100,5.19805615234375,-49.66719055175781,16.549468994140625,2.5751304626464844
1711795435209032000,5.208031982421875,-49.78550720214844,16.301437377929688,2.409290313720703
1711795435219008300,5.21800830078125,-49.507476806640625,16.587249755859375,2.3423995971679688
1711795435228984000,5.227984130859375,-49.5909423828125,16.576904296875,2.33636474609375
1711795435238960000,5.237960205078125,-49.608978271484375,16.494232177734375,2.236675262451172
1711795435248935000,5.247934814453125,-49.37115478515625,16.657424926757812,2.359203338623047
1711795435258911200,5.2579111328125,-49.52960205078125,16.733489990234375,2.4085731506347656
1711795435268887000,5.267886962890625,-49.74864196777344,16.8662109375,2.1466140747070312
1711795435278863000,5.277863037109375,-49.91603088378906,16.623641967773438,2.114269256591797
1711795435288839200,5.287839111328125,-49.74629211425781,16.83062744140625,2.0875015258789062
1711795435298815000,5.29781494140625,-49.42292785644531,16.74432373046875,2.0757789611816406
1711795435308790300,5.307790283203125,-49.50486755371094,16.614990234375,1.8905601501464844
1711795435318766000,5.31776611328125,-49.48475646972656,16.3399658203125,1.7206153869628906
1711795435328742100,5.3277421875,-49.97486877441406,16.627822875976562,1.5779151916503906
1711795435338718200,5.33771826171875,-49.75482177734375,16.323516845703125,1.6818389892578125
1711795435348694000,5.347694091796875,-49.94488525390625,16.287765502929688,1.5389747619628906
1711795435358669000,5.3576689453125,-49.739471435546875,16.158340454101562,1.5616493225097656
1711795435368645000,5.36764501953125,-49.957672119140625,16.286697387695312,1.3828277587890625
1711795435378621200,5.37762109375,-50.00447082519531,16.27935791015625,1.4048271179199219
1711795435388597000,5.387596923828125,-50.16673278808594,16.007797241210938,1.290130615234375
1711795435398573000,5.397572998046875,-50.2977294921875,16.137451171875,1.3077125549316406
1711795435408549000,5.407549072265625,-50.25260925292969,15.843185424804688,1.6629753112792969
1711795435418524000,5.41752392578125,-50.214813232421875,15.517593383789062,1.6947174072265625
1711795435428500200,5.427500244140625,-50.212615966796875,15.467437744140625,1.64154052734375
1711795435438476000,5.43747607421875,-50.481842041015625,15.2730712890625,1.70672607421875
1711795435448452000,5.4474521484375,-50.35340881347656,15.277099609375,1.6357879638671875
1711795435458428200,5.45742822265625,-50.349609375,15.0986328125,1.8628120422363281
1711795435468403200,5.4674033203125,-50.48292541503906,15.30987548828125,1.675933837890625
1711795435478379000,5.47737890625,-50.54060363769531,15.35089111328125,1.6992568969726562
1711795435488355000,5.48735498046875,-49.84071350097656,15.666976928710938,1.8059616088867188
1711795435498331100,5.4973310546875,-50.48439025878906,15.547607421875,1.8869132995605469
1711795435508307000,5.507306884765625,-50.42161560058594,15.443130493164062,2.037017822265625
1711795435518282200,5.5172822265625,-50.46501159667969,15.449020385742188,2.097583770751953
1711795435528258000,5.527258056640625,-50.35813903808594,15.538833618164062,1.9982528686523438
1711795435538234000,5.537234130859375,-50.097808837890625,15.69537353515625,2.025890350341797
1711795435548210200,5.547210205078125,-50.54600524902344,15.922119140625,2.1802825927734375
1711795435558186000,5.55718603515625,-50.23582458496094,15.868179321289062,2.2774620056152344
1711795435568162300,5.567162353515625,-50.219482421875,15.835220336914062,2.0078887939453125
1711795435578137000,5.57713720703125,-50.15655517578125,15.892623901367188,1.9967155456542969
1711795435588113200,5.587113037109375,-50.196533203125,16.300399780273438,2.2827682495117188
1711795435598089000,5.5970888671875,-50.33851623535156,16.213760375976562,2.0910606384277344
1711795435608065000,5.60706494140625,-50.13201904296875,16.292449951171875,2.1316871643066406
1711795435618041000,5.617041015625,-50.332672119140625,16.479721069335938,1.9496650695800781
1711795435628015900,5.627015869140625,-50.31111145019531,16.358871459960938,2.320343017578125
1711795435637992200,5.6369921875,-50.186248779296875,16.161865234375,1.9982490539550781
1711795435647968000,5.646968017578125,-50.392730712890625,16.129226684570312,2.1140060424804688
1711795435657944300,5.6569443359375,-50.15791320800781,15.8468017578125,2.2413291931152344
1711795435667920100,5.666920166015625,-49.98199462890625,15.881149291992188,2.1395225524902344
1711795435677896000,5.67689599609375,-50.281585693359375,15.74749755859375,2.2858047485351562
1711795435687871000,5.68687109375,-50.459075927734375,15.7275390625,2.3600234985351562
1711795435697847000,5.696846923828125,-50.34898376464844,15.513534545898438,2.4336204528808594
1711795435707823000,5.706822998046875,-50.12187194824219,15.656341552734375,2.4642906188964844
1711795435717799200,5.716799072265625,-50.480194091796875,15.705032348632812,2.4879989624023438
1711795435727775000,5.72677490234375,-50.19172668457031,15.952438354492188,2.5392494201660156
1711795435737750000,5.73675,-50.206939697265625,16.013397216796875,2.6166152954101562
1711795435747726000,5.74672607421875,-50.558746337890625,15.825393676757812,2.5024566650390625
1711795435757702100,5.7567021484375,-50.31378173828125,15.561325073242188,2.4423255920410156
1711795435767678000,5.766677978515625,-50.471160888671875,15.696395874023438,2.6367645263671875
1711795435777654300,5.776654296875,-50.558746337890625,15.821685791015625,2.4748306274414062
1711795435787629000,5.786629150390625,-50.83732604980469,15.84429931640625,2.2090797424316406
1711795435797605000,5.796605224609375,-50.664093017578125,15.954055786132812,2.429401397705078
1711795435807581200,5.806581298828125,-50.43446350097656,16.01568603515625,2.484760284423828
1711795435817557000,5.816556884765625,-50.44380187988281,16.00177001953125,2.5492210388183594
1711795435827533000,5.826532958984375,-50.65342712402344,15.750106811523438,2.681529998779297
1711795435837509000,5.836509033203125,-50.72456359863281,15.697006225585938,2.907062530517578
1711795435847484200,5.846484130859375,-50.737030029296875,15.55291748046875,2.986217498779297
1711795435857460000,5.8564599609375,-50.71211242675781,15.5665283203125,2.717376708984375
1711795435867436300,5.866436279296875,-50.36643981933594,15.598724365234375,2.7690467834472656
1711795435877412000,5.876412109375,-50.46376037597656,15.585128784179688,2.8910560607910156
1711795435887388000,5.886387939453125,-50.80406188964844,15.701416015625,2.911407470703125
1711795435897363200,5.89636328125,-50.42596435546875,15.559173583984375,2.867870330810547
1711795435907339000,5.906339111328125,-50.671478271484375,15.657516479492188,2.831287384033203
1711795435917315000,5.916315185546875,-50.69810485839844,15.426666259765625,2.8682518005371094
1711795435927291100,5.926291015625,-50.62939453125,15.449691772460938,3.0861968994140625
1711795435937267000,5.936266845703125,-50.93309020996094,15.436248779296875,3.3109092712402344
1711795435947243000,5.946242919921875,-50.63121032714844,15.589950561523438,3.44720458984375
1711795435957218000,5.956218017578125,-50.7601318359375,15.462249755859375,3.314777374267578
1711795435967194000,5.966194091796875,-50.466888427734375,15.328292846679688,3.6846046447753906
1711795435977170000,5.976169921875,-50.354034423828125,15.34613037109375,3.8414688110351562
1711795435987145700,5.986145751953125,-50.4383544921875,15.348983764648438,3.8690643310546875
1711795435997121800,5.996121826171875,-50.93724060058594,15.55853271484375,4.063438415527344
1711795436007096800,6.006096923828125,-50.86358642578125,15.267608642578125,4.2049102783203125
1711795436017072600,6.01607275390625,-50.80462646484375,15.276702880859375,4.357421875
1711795436027048700,6.026048583984375,-50.986419677734375,15.313507080078125,4.495243072509766
1711795436037024800,6.036024658203125,-50.80879211425781,15.13330078125,4.5555572509765625
1711795436047000600,6.04600048828125,-50.98908996582031,15.171981811523438,4.6406402587890625
1711795436056976000,6.055975830078125,-50.60597229003906,15.092987060546875,4.702114105224609
1711795436066951700,6.06595166015625,-50.94554138183594,15.14337158203125,5.200447082519531
1711795436076927700,6.075927734375,-50.626678466796875,15.031600952148438,5.298419952392578
1711795436086903800,6.08590380859375,-50.54026794433594,15.139450073242188,5.5262298583984375
1711795436096879600,6.095879638671875,-50.49882507324219,14.995681762695312,5.6191864013671875
1711795436106856000,6.10585595703125,-50.87034606933594,15.045166015625,5.854278564453125
1711795436116830700,6.115830810546875,-50.73527526855469,15.0107421875,5.959861755371094
1711795436126806800,6.125806884765625,-50.37648010253906,14.998031616210938,6.176109313964844
1711795436136782600,6.135782470703125,-50.24638366699219,14.7120361328125,6.238037109375
1711795436146759000,6.145759033203125,-50.4326171875,14.5009765625,6.388236999511719
1711795436156734700,6.155734619140625,-50.22251892089844,14.444793701171875,6.466907501220703
1711795436166709800,6.165709716796875,-50.648956298828125,14.389694213867188,6.742649078369141
1711795436176685800,6.175685791015625,-50.17512512207031,14.253860473632812,6.844585418701172
1711795436186661600,6.18566162109375,-50.576904296875,14.13482666015625,6.651031494140625
1711795436196638000,6.195637939453125,-50.77214050292969,14.270614624023438,6.461231231689453
1711795436206613800,6.20561376953125,-50.92771911621094,13.947967529296875,6.349945068359375
1711795436216588800,6.2155888671875,-50.785980224609375,14.02996826171875,6.22052001953125
1711795436226564600,6.225564697265625,-50.80973815917969,13.867019653320312,6.064689636230469
1711795436236540700,6.235540771484375,-51.13087463378906,13.939224243164062,6.192165374755859
1711795436246516700,6.245516845703125,-51.021240234375,13.7755126953125,5.88189697265625
1711795436256492800,6.255492919921875,-50.96112060546875,13.708770751953125,6.022117614746094
1711795436266468900,6.26546875,-51.391204833984375,13.596267700195312,5.999237060546875
1711795436276443600,6.275443603515625,-51.131744384765625,13.46923828125,6.07232666015625
1711795436286420000,6.285419921875,-51.19830322265625,13.351516723632812,5.856315612792969
1711795436296395800,6.295395751953125,-51.396148681640625,13.530105590820312,5.9455108642578125
1711795436306371600,6.30537158203125,-51.14671325683594,13.442108154296875,5.895782470703125
1711795436316348000,6.315347900390625,-50.94940185546875,13.56549072265625,5.650779724121094
1711795436326322700,6.32532275390625,-51.043670654296875,13.655410766601562,5.583320617675781
1711795436336298800,6.335298828125,-51.10870361328125,13.55145263671875,5.712390899658203
1711795436346274800,6.34527490234375,-50.84034729003906,13.842788696289062,5.950775146484375
1711795436356251000,6.3552509765625,-50.91944885253906,13.588729858398438,5.725322723388672
1711795436366226700,6.365226806640625,-51.02183532714844,13.518173217773438,5.748310089111328
1711795436376202000,6.375201904296875,-50.790740966796875,13.586196899414062,5.754085540771484
1711795436386177800,6.385177734375,-50.94970703125,13.719375610351562,5.793643951416016
1711795436396153600,6.395153564453125,-50.74674987792969,13.867630004882812,5.843849182128906
1711795436406130000,6.4051298828125,-50.91337585449219,14.113555908203125,5.582695007324219
1711795436416105700,6.415105712890625,-50.760406494140625,14.24981689453125,5.760540008544922
1711795436426081500,6.42508154296875,-50.67198181152344,14.422164916992188,5.876029968261719
1711795436436056800,6.435056884765625,-50.52412414550781,14.492019653320312,5.676811218261719
1711795436446032600,6.44503271484375,-50.677490234375,14.924270629882812,5.601371765136719
1711795436456008700,6.4550087890625,-50.63325500488281,15.1900634765625,5.4854888916015625
1711795436465984800,6.46498486328125,-50.468048095703125,15.284164428710938,5.504631042480469
1711795436475960800,6.4749609375,-50.54783630371094,15.120208740234375,5.411724090576172
1711795436485935600,6.484935546875,-50.58766174316406,15.43035888671875,5.432090759277344
1711795436495912000,6.494911865234375,-50.42161560058594,15.511383056640625,5.171363830566406
1711795436505887700,6.5048876953125,-50.422088623046875,15.489227294921875,5.118999481201172
1711795436515863600,6.514863525390625,-50.274139404296875,15.351638793945312,4.902149200439453
1711795436525840000,6.52483984375,-50.272857666015625,15.234634399414062,4.937313079833984
1711795436535814700,6.534814697265625,-50.708740234375,15.530426025390625,5.043827056884766
1711795436545790700,6.544790771484375,-50.46319580078125,15.53594970703125,4.791965484619141
1711795436555766800,6.554766845703125,-50.56227111816406,15.58447265625,4.688331604003906
1711795436565742800,6.564742919921875,-50.087677001953125,15.600509643554688,4.383075714111328
1711795436575718700,6.57471875,-50.57017517089844,15.921981811523438,4.528861999511719
1711795436585694000,6.58469384765625,-50.466949462890625,15.88287353515625,4.285469055175781
1711795436595669800,6.594669677734375,-50.361572265625,15.7659912109375,4.247623443603516
1711795436605645600,6.6046455078125,-50.39402770996094,16.000732421875,4.315513610839844
1711795436615622000,6.614621826171875,-50.349365234375,16.139480590820312,4.1487274169921875
1711795436625597700,6.62459765625,-50.38908386230469,16.01947021484375,4.188041687011719
1711795436635573800,6.63457373046875,-50.27838134765625,16.200942993164062,4.083366394042969
1711795436645548800,6.644548828125,-50.11616516113281,16.414093017578125,4.101520538330078
1711795436655524600,6.654524658203125,-50.07252502441406,16.49188232421875,3.966075897216797
1711795436665500700,6.664500732421875,-50.27235412597656,16.3409423828125,3.848804473876953
1711795436675476700,6.674476806640625,-50.42549133300781,16.504791259765625,3.8492965698242188
1711795436685452800,6.684452880859375,-50.23158264160156,16.616073608398438,3.8189048767089844
1711795436695427600,6.694427490234375,-50.433990478515625,16.827728271484375,3.7196311950683594
1711795436705404000,6.70440380859375,-50.27510070800781,17.088165283203125,3.1910324096679688
1711795436715379700,6.714379638671875,-50.21588134765625,17.008056640625,3.390228271484375
1711795436725355800,6.724355712890625,-50.17413330078125,17.035263061523438,3.4081573486328125
1711795436735331800,6.734331787109375,-50.1644287109375,17.005584716796875,3.4309768676757812
1711795436745306600,6.744306640625,-49.96549987792969,17.048751831054688,3.6380081176757812
1711795436755282700,6.75428271484375,-49.7581787109375,17.002777099609375,3.682098388671875
1711795436765258800,6.7642587890625,-50.12115478515625,16.8546142578125,3.64556884765625
1711795436775234800,6.77423486328125,-49.89405822753906,17.210861206054688,3.455646514892578
1711795436785211000,6.7842109375,-50.21318054199219,17.080245971679688,3.9140243530273438
1711795436795186000,6.79418603515625,-50.263092041015625,16.90679931640625,3.45068359375
1711795436805161700,6.80416162109375,-49.69511413574219,16.752792358398438,3.4918441772460938
1711795436815137800,6.8141376953125,-50.067840576171875,16.736236572265625,3.328716278076172
1711795436825113900,6.82411376953125,-50.132659912109375,16.966903686523438,3.48138427734375
1711795436835089700,6.834089599609375,-49.873291015625,17.03155517578125,3.56854248046875
1711795436845064700,6.844064697265625,-50.193115234375,16.941558837890625,3.5466957092285156
1711795436855040800,6.854040771484375,-49.8568115234375,16.631729125976562,3.2992095947265625
1711795436865016600,6.8640166015625,-50.01025390625,16.80755615234375,3.25738525390625
1711795436874993000,6.873992919921875,-49.840789794921875,16.872390747070312,3.397113800048828
1711795436884968700,6.88396875,-49.874481201171875,16.768753051757812,3.5767288208007812
1711795436894944800,6.89394482421875,-49.89237976074219,16.649429321289062,3.4753646850585938
1711795436904919800,6.903919921875,-49.964935302734375,16.504776000976562,3.675762176513672
1711795436914896000,6.913895751953125,-49.87757873535156,16.244491577148438,3.6127395629882812
1711795436924871700,6.92387158203125,-49.73138427734375,16.120025634765625,3.456707000732422
1711795436934847700,6.93384765625,-49.75665283203125,16.153717041015625,3.424884796142578
1711795436944823800,6.94382373046875,-50.00263977050781,16.136825561523438,3.250701904296875
1711795436954798600,6.953798583984375,-50.06556701660156,15.875152587890625,3.0643043518066406
1711795436964775000,6.96377490234375,-49.8038330078125,15.875213623046875,3.006683349609375
1711795436974750700,6.973750732421875,-49.73103332519531,15.641265869140625,2.8389968872070312
1711795436984726500,6.9837265625,-49.780517578125,15.729049682617188,2.641754150390625
1711795436994702300,6.993702392578125,-49.89288330078125,15.683502197265625,2.5121231079101562
1711795437004677400,7.003677490234375,-49.850067138671875,16.044082641601562,2.1312103271484375
1711795437014653400,7.0136533203125,-49.96905517578125,15.708892822265625,2.1837425231933594
1711795437024629200,7.023629150390625,-49.95109558105469,15.792572021484375,2.3022422790527344
1711795437034605300,7.033605224609375,-49.89453125,15.803421020507812,2.0258026123046875
1711795437044581400,7.043581298828125,-49.94830322265625,15.988418579101562,1.9030799865722656
1711795437054556400,7.053556396484375,-49.86909484863281,15.897369384765625,1.8804206848144531
1711795437064532200,7.0635322265625,-49.95735168457031,15.876434326171875,1.8976593017578125
1711795437074508500,7.073508544921875,-50.20893859863281,15.605377197265625,2.04449462890625
1711795437084484400,7.083484375,-49.81062316894531,15.544357299804688,1.8878555297851562
1711795437094460400,7.09346044921875,-49.69831848144531,15.438552856445312,1.8422050476074219
1711795437104435500,7.103435546875,-49.80291748046875,15.54058837890625,1.8925590515136719
1711795437114411300,7.113411376953125,-49.8443603515625,15.460906982421875,1.6916694641113281
1711795437124387300,7.12338720703125,-50.12428283691406,15.25140380859375,1.687042236328125
1711795437134363400,7.13336328125,-50.558197021484375,15.041778564453125,1.9791259765625
1711795437144339200,7.143339111328125,-50.17010498046875,14.998733520507812,1.9798965454101562
1711795437154314200,7.153314208984375,-50.58354187011719,14.685516357421875,1.8937263488769531
1711795437164290300,7.163290283203125,-50.77970886230469,14.823410034179688,1.7795143127441406
1711795437174266400,7.173266357421875,-50.77839660644531,14.576126098632812,1.5723762512207031
1711795437184242400,7.183242431640625,-50.600189208984375,14.363998413085938,1.4535026550292969
1711795437194218500,7.193218505859375,-50.76249694824219,13.959686279296875,1.6566123962402344
1711795437204194300,7.2031943359375,-50.58091735839844,13.766143798828125,1.6744461059570312
1711795437214169300,7.21316943359375,-50.62370300292969,13.605072021484375,1.8546028137207031
1711795437224145400,7.2231455078125,-50.73675537109375,13.753326416015625,1.9367828369140625
1711795437234121200,7.233121337890625,-50.551544189453125,13.9327392578125,1.7737350463867188
1711795437244097500,7.24309765625,-50.63099670410156,13.965591430664062,1.5901374816894531
1711795437254073300,7.2530732421875,-50.27720642089844,14.089675903320312,1.5232048034667969
1711795437264048400,7.26304833984375,-50.21690368652344,14.128509521484375,1.489898681640625
1711795437274024400,7.2730244140625,-50.410552978515625,14.08367919921875,1.6049690246582031
1711795437284000500,7.28300048828125,-49.88002014160156,14.202407836914062,1.6381683349609375
1711795437293976300,7.292976318359375,-50.08282470703125,14.400527954101562,1.5058059692382812
1711795437303952400,7.302952392578125,-50.420623779296875,14.638626098632812,1.6227493286132812
1711795437313927400,7.312927490234375,-50.43025207519531,14.57696533203125,1.5746955871582031
1711795437323903200,7.3229033203125,-49.89691162109375,14.662612915039062,1.5597991943359375
1711795437333879600,7.332879638671875,-49.99217224121094,14.616561889648438,1.7567710876464844
1711795437343855400,7.34285546875,-50.157958984375,14.80438232421875,1.5185928344726562
1711795437353831200,7.3528310546875,-49.88597106933594,15.027801513671875,1.5871543884277344
1711795437363806500,7.362806396484375,-49.11524963378906,15.090972900390625,1.6727981567382812
1711795437373782300,7.3727822265625,-49.89306640625,15.247695922851562,1.4938507080078125
1711795437383758300,7.38275830078125,-49.48786926269531,15.281280517578125,1.5510025024414062
1711795437393734400,7.392734375,-49.57841491699219,15.211959838867188,1.6179618835449219
1711795437403710500,7.40271044921875,-49.3978271484375,15.082183837890625,1.7635231018066406
1711795437413685200,7.412685302734375,-49.976348876953125,15.571029663085938,2.0107078552246094
1711795437423661600,7.42266162109375,-49.33058166503906,15.468368530273438,1.8753013610839844
1711795437433637400,7.432637451171875,-49.709625244140625,15.507247924804688,2.000385284423828
1711795437443613200,7.44261328125,-49.86390686035156,15.40435791015625,1.5547409057617188
1711795437453589500,7.452589599609375,-49.64619445800781,15.44488525390625,1.6776008605957031
1711795437463564300,7.462564208984375,-49.61415100097656,15.787979125976562,1.8578376770019531
1711795437473540400,7.472540283203125,-49.587432861328125,15.790313720703125,1.881134033203125
1711795437483516400,7.482516357421875,-49.832000732421875,15.97467041015625,2.0076332092285156
1711795437493492500,7.492492431640625,-49.79026794433594,15.779556274414062,1.7977752685546875
1711795437503468300,7.50246826171875,-49.56915283203125,15.59991455078125,1.859161376953125
1711795437513443600,7.512443603515625,-49.42388916015625,15.814208984375,1.7764015197753906
1711795437523419400,7.52241943359375,-49.69734191894531,15.944793701171875,2.022319793701172
1711795437533395200,7.532395263671875,-49.44403076171875,15.74566650390625,1.9618415832519531
1711795437543371500,7.54237158203125,-49.31721496582031,15.86865234375,1.8297920227050781
1711795437553347300,7.552347412109375,-49.2249755859375,16.016845703125,2.137134552001953
1711795437563322400,7.562322265625,-49.24333190917969,15.934173583984375,2.308734893798828
1711795437573298400,7.57229833984375,-49.142791748046875,15.996246337890625,2.1453895568847656
1711795437583274200,7.582274169921875,-49.64955139160156,15.947479248046875,2.1355361938476562
1711795437593250300,7.592250244140625,-49.75477600097656,15.810501098632812,1.9262313842773438
1711795437603226400,7.602226318359375,-49.26591491699219,15.694595336914062,2.2148284912109375
1711795437613202400,7.612202392578125,-49.20921325683594,15.78399658203125,1.9383544921875
1711795437623177200,7.62217724609375,-49.26580810546875,15.844070434570312,2.061798095703125
1711795437633153500,7.632153564453125,-49.267974853515625,15.795394897460938,2.163585662841797
1711795437643129300,7.64212939453125,-49.28955078125,15.741378784179688,2.0379409790039062
1711795437653105400,7.65210546875,-49.33660888671875,15.647308349609375,2.2492752075195312
1711795437663081500,7.66208154296875,-49.19068908691406,15.676254272460938,2.41015625
1711795437673056300,7.67205615234375,-49.143096923828125,15.587554931640625,2.445201873779297
1711795437683032300,7.6820322265625,-49.37638854980469,15.806747436523438,2.560047149658203
1711795437693008400,7.69200830078125,-49.31629943847656,15.585037231445312,2.4454116821289062
1711795437702984400,7.701984375,-49.054779052734375,15.422698974609375,2.3728981018066406
1711795437712960500,7.71196044921875,-48.95106506347656,15.541015625,2.4619102478027344
1711795437722935600,7.721935546875,-49.11201477050781,15.252670288085938,2.8244705200195312
1711795437732911400,7.731911376953125,-49.35816955566406,15.207275390625,2.678699493408203
1711795437742887400,7.741887451171875,-49.26666259765625,15.234878540039062,2.645824432373047
1711795437752863500,7.751863525390625,-49.545867919921875,14.98492431640625,2.7646408081054688
1711795437762839300,7.76183935546875,-49.537567138671875,15.08294677734375,2.834197998046875
1711795437772814300,7.771814453125,-49.47052001953125,14.993179321289062,2.8301658630371094
1711795437782790400,7.781790283203125,-49.453948974609375,15.219512939453125,3.0572052001953125
1711795437792766200,7.79176611328125,-49.41456604003906,15.127822875976562,2.969676971435547
1711795437802742500,7.801742431640625,-49.329132080078125,15.008758544921875,2.8870620727539062
1711795437812718300,7.81171826171875,-49.42308044433594,15.0975341796875,2.7059860229492188
1711795437822693400,7.821693359375,-49.22627258300781,15.034942626953125,2.7960433959960938
1711795437832669400,7.83166943359375,-49.425506591796875,15.130538940429688,2.706707000732422
1711795437842645500,7.8416455078125,-49.19923400878906,15.065383911132812,2.7451629638671875
1711795437852621300,7.851621337890625,-49.0615234375,14.9683837890625,2.22705078125
1711795437862597400,7.861597412109375,-49.156585693359375,14.8831787109375,2.0917434692382812
1711795437872572400,7.871572509765625,-49.30213928222656,15.335250854492188,2.370494842529297
1711795437882548200,7.88154833984375,-49.029998779296875,15.196853637695312,2.4739418029785156
1711795437892524500,7.891524658203125,-48.918487548828125,15.2298583984375,2.4738998413085938
1711795437902500400,7.901500244140625,-48.81785583496094,14.988433837890625,2.6685752868652344
1711795437912476400,7.911476318359375,-48.91912841796875,14.931961059570312,2.6301918029785156
1711795437922451500,7.921451416015625,-49.130126953125,14.719924926757812,2.6507492065429688
1711795437932427500,7.931427490234375,-49.26979064941406,14.754425048828125,2.7705726623535156
1711795437942403300,7.9414033203125,-49.2371826171875,14.654525756835938,2.4827651977539062
1711795437952379400,7.95137939453125,-49.09318542480469,14.544342041015625,2.299999237060547
1711795437962355500,7.96135546875,-48.70747375488281,14.34259033203125,2.5751113891601562
1711795437972330200,7.971330322265625,-48.732696533203125,14.358154296875,2.4264678955078125
1711795437982306600,7.981306640625,-49.03157043457031,14.422500610351562,2.3715972900390625
1711795437992282600,7.99128271484375,-48.89312744140625,14.457427978515625,2.1638946533203125
1711795438002258400,8.001258544921875,-49.05836486816406,14.432754516601562,2.1212196350097656
1711795438012234800,8.01123486328125,-48.85357666015625,14.53924560546875,2.027179718017578
1711795438022209500,8.02120947265625,-49.16064453125,14.589935302734375,1.9500160217285156
1711795438032185600,8.031185546875,-48.900360107421875,14.75653076171875,2.019817352294922
1711795438042161700,8.04116162109375,-48.782867431640625,14.566925048828125,1.7980003356933594
1711795438052137700,8.0511376953125,-48.521270751953125,14.313232421875,1.5635757446289062
1711795438062113500,8.061113525390626,-48.7066650390625,14.413543701171875,1.8154640197753906
1711795438072088600,8.071088623046874,-48.736572265625,14.238433837890625,1.8485641479492188
1711795438082064600,8.081064697265624,-48.6171875,14.34478759765625,1.6117630004882812
1711795438092040400,8.09104052734375,-48.57676696777344,14.32843017578125,1.7934379577636719
1711795438102016800,8.101016845703125,-48.61058044433594,14.168624877929688,1.86785888671875
1711795438111992600,8.11099267578125,-48.69194030761719,14.1724853515625,1.9644813537597656
1711795438121967600,8.120967529296875,-48.895538330078125,14.095291137695312,1.8473434448242188
1711795438131943700,8.130943603515625,-48.93104553222656,14.175811767578125,1.9698104858398438
1711795438141919500,8.14091943359375,-48.66607666015625,14.213653564453125,1.7944564819335938
1711795438151895600,8.1508955078125,-48.58831787109375,14.214813232421875,2.2085113525390625
1711795438161871600,8.16087158203125,-48.75920104980469,14.134246826171875,1.9332923889160156
1711795438171846700,8.1708466796875,-48.59208679199219,14.131454467773438,2.2107582092285156
1711795438181822500,8.180822509765624,-48.69288635253906,14.452774047851562,2.6064529418945312
1711795438191798800,8.190798828125,-48.764404296875,14.576568603515625,2.421588897705078
1711795438201774600,8.200774658203125,-48.56939697265625,14.71490478515625,2.400959014892578
1711795438211750400,8.21075048828125,-48.522979736328125,14.8211669921875,2.7940673828125
1711795438221725700,8.2207255859375,-48.378509521484375,15.145950317382812,2.545459747314453
1711795438231701500,8.230701416015625,-48.66845703125,15.279449462890625,2.5474929809570312
1711795438241677600,8.240677490234376,-48.291961669921875,15.07891845703125,2.3477859497070312
1711795438251653600,8.250653564453126,-47.99028015136719,15.194992065429688,2.651763916015625
1711795438261629700,8.260629638671874,-48.25001525878906,15.292739868164062,2.324596405029297
1711795438271604500,8.2706044921875,-48.414337158203125,15.295928955078125,2.4206199645996094
1711795438281580800,8.280580810546875,-48.274169921875,15.13873291015625,2.4982833862304688
1711795438291556600,8.290556640625,-47.96208190917969,15.208389282226562,2.333690643310547
1711795438301532400,8.300532470703125,-48.22367858886719,15.019683837890625,2.158649444580078
1711795438311508700,8.3105087890625,-48.30369567871094,15.050888061523438,2.2876358032226562
1711795438321483500,8.3204833984375,-47.84327697753906,15.095291137695312,1.8337936401367188
1711795438331459600,8.33045947265625,-48.03895568847656,15.27764892578125,2.024791717529297
1711795438341435600,8.340435546875,-48.40155029296875,15.358779907226562,2.052581787109375
1711795438351411500,8.350411376953126,-48.13899230957031,15.59881591796875,1.9774742126464844
1711795438361387500,8.360387451171874,-47.888031005859375,15.6790771484375,2.464488983154297
1711795438371362600,8.370362548828124,-47.95697021484375,15.720016479492188,2.5011749267578125
1711795438381338600,8.380338623046875,-48.099517822265625,15.54180908203125,2.1911773681640625
1711795438391314400,8.390314453125,-48.01081848144531,15.78497314453125,2.0621871948242188
1711795438401290800,8.400290771484375,-48.27644348144531,15.822296142578125,2.300689697265625
1711795438411266600,8.4102666015625,-47.94044494628906,15.5753173828125,2.2926406860351562
1711795438421241600,8.42024169921875,-48.065673828125,15.703887939453125,2.2159652709960938
1711795438431217700,8.4302177734375,-47.921600341796875,15.770233154296875,2.0685882568359375
1711795438441193500,8.440193359375,-48.076446533203125,15.733230590820312,2.1209259033203125
1711795438451169500,8.45016943359375,-48.30377197265625,15.5302734375,2.1223487854003906
1711795438461145600,8.4601455078125,-48.16081237792969,15.63116455078125,2.0763092041015625
1711795438471120600,8.47012060546875,-47.96577453613281,15.681732177734375,2.0157089233398438
1711795438481096400,8.480096435546875,-47.76567077636719,15.601058959960938,2.018512725830078
1711795438491072800,8.49007275390625,-47.63029479980469,15.772537231445312,1.9954071044921875
1711795438501048600,8.500048583984375,-48.11222839355469,15.401687622070312,1.8612861633300781
1711795438511024400,8.5100244140625,-47.81634521484375,15.405364990234375,1.9096450805664062
1711795438520999700,8.519999755859375,-47.60853576660156,15.477554321289062,1.9684600830078125
1711795438530975500,8.5299755859375,-47.7894287109375,15.476455688476562,1.7682647705078125
1711795438540951600,8.53995166015625,-48.06852722167969,15.496963500976562,1.9957389831542969
1711795438550927600,8.549927734375,-48.08799743652344,15.293899536132812,2.169353485107422
1711795438560903400,8.5599033203125,-47.92327880859375,15.346725463867188,2.0897178649902344
1711795438570878500,8.56987841796875,-47.76454162597656,15.244232177734375,1.8921699523925781
1711795438580854500,8.5798544921875,-47.55686950683594,15.574142456054688,1.9133377075195312
1711795438590830600,8.58983056640625,-47.65899658203125,15.629806518554688,1.6880645751953125
1711795438600806400,8.599806396484375,-47.544647216796875,15.262847900390625,1.70208740234375
1711795438610782700,8.60978271484375,-47.715911865234375,15.3538818359375,1.5453071594238281
1711795438620757500,8.619757568359375,-47.57122802734375,15.34698486328125,1.6767730712890625
1711795438630733600,8.629733642578126,-47.88800048828125,14.899917602539062,1.7606353759765625
1711795438640709600,8.639709716796874,-47.893585205078125,14.790969848632812,1.6038017272949219
1711795438650685400,8.649685546875,-48.181671142578125,14.951736450195312,1.8485336303710938
1711795438660661800,8.659661865234375,-48.330291748046875,14.855758666992188,1.6727752685546875
1711795438670636500,8.669636474609375,-48.32356262207031,14.72625732421875,1.7615394592285156
1711795438680612600,8.679612548828125,-48.13810729980469,14.722091674804688,1.6916236877441406
1711795438690588400,8.68958837890625,-48.482635498046875,14.673477172851562,1.4802818298339844
1711795438700564700,8.699564697265625,-48.05534362792969,14.71240234375,1.4225349426269531
1711795438710540500,8.70954052734375,-48.04972839355469,14.754226684570312,1.1900482177734375
1711795438720515600,8.719515625,-48.10382080078125,14.68792724609375,1.0855445861816406
1711795438730491600,8.72949169921875,-47.61729431152344,14.836517333984375,1.2824172973632812
1711795438740467500,8.739467529296874,-47.83274841308594,14.98211669921875,0.9280967712402344
1711795438750443800,8.74944384765625,-47.86448669433594,15.361724853515625,0.9554367065429688
1711795438760419600,8.759419677734375,-47.73561096191406,15.1734619140625,0.9411048889160156
1711795438770394600,8.76939453125,-47.66156005859375,15.157958984375,0.9864540100097656
1711795438780370400,8.779370361328125,-48.06085205078125,15.114944458007812,0.8563690185546875
1711795438790346500,8.789346435546875,-47.932647705078125,15.054885864257812,0.9076042175292969
1711795438800322600,8.799322509765625,-47.89784240722656,15.156143188476562,0.7517852783203125
1711795438810298600,8.809298583984376,-47.74394226074219,15.115707397460938,0.8655586242675781
1711795438820273700,8.819273681640626,-47.65565490722656,14.981948852539062,0.7785491943359375
1711795438830249500,8.82924951171875,-48.043731689453125,14.975723266601562,0.4793701171875
1711795438840225800,8.839225830078124,-47.68110656738281,14.858428955078125,0.6449394226074219
1711795438850201600,8.84920166015625,-47.70306396484375,14.763427734375,0.7289886474609375
1711795438860177400,8.859177490234375,-48.033935546875,14.416732788085938,0.5760612487792969
1711795438870152400,8.86915234375,-47.92778015136719,14.545211791992188,0.6197891235351562
1711795438880128500,8.87912841796875,-48.17802429199219,14.41998291015625,0.688232421875
1711795438890104600,8.8891044921875,-48.138153076171875,14.4613037109375,0.5893402099609375
1711795438900080600,8.89908056640625,-47.94090270996094,14.466842651367188,0.8656959533691406
1711795438910056700,8.909056640625,-48.10951232910156,14.2431640625,0.8744964599609375
1711795438920031500,8.919031494140626,-47.90483093261719,13.95587158203125,0.76129150390625
1711795438930007800,8.9290078125,-48.22724914550781,13.94683837890625,0.7154045104980469
1711795438939983600,8.938983642578124,-47.92840576171875,14.42364501953125,0.4713401794433594
1711795438949959400,8.94895947265625,-48.12528991699219,14.242828369140625,0.5345611572265625
1711795438959934500,8.9589345703125,-48.06105041503906,14.020309448242188,0.5340003967285156
1711795438969910500,8.96891064453125,-48.30036926269531,14.306259155273438,0.5803947448730469
1711795438979886600,8.978886474609375,-48.22283935546875,14.157882690429688,0.5426216125488281
1711795438989862400,8.9888623046875,-48.42704772949219,13.917633056640625,0.5538444519042969
1711795438999838500,8.99883837890625,-47.878082275390625,13.724716186523438,0.5454788208007812
1711795439009813500,9.0088134765625,-47.82379150390625,13.944305419921875,0.4518318176269531
1711795439019789600,9.01878955078125,-47.74354553222656,14.008102416992188,0.4446754455566406
1711795439029765600,9.028765625,-47.579864501953125,13.8929443359375,0.2899208068847656
1711795439039741400,9.038741455078124,-47.725189208984375,14.029495239257812,0.08420181274414062
1711795439049717500,9.048717529296875,-47.90068054199219,13.938247680664062,-0.13312149047851562
1711795439059692500,9.058692626953125,-48.401763916015625,13.954666137695312,-0.01502227783203125
1711795439069668600,9.068668701171875,-48.10926818847656,13.943069458007812,0.11597061157226562
1711795439079644400,9.07864453125,-47.82554626464844,14.312515258789062,0.4608192443847656
1711795439089620500,9.088620361328125,-48.03941345214844,14.434158325195312,0.32477569580078125
1711795439099596500,9.098596435546876,-47.83110046386719,14.663177490234375,0.19993972778320312
1711795439109571600,9.108571533203126,-47.57075500488281,14.65625,0.4388618469238281
1711795439119547600,9.118547607421876,-48.13807678222656,14.570404052734375,0.3945350646972656
1711795439129523500,9.1285234375,-48.10289001464844,14.76568603515625,0.19302749633789062
1711795439139499500,9.13849951171875,-47.81477355957031,14.684524536132812,0.214569091796875
1711795439149475600,9.1484755859375,-48.127655029296875,14.926132202148438,0.19342041015625
1711795439159450600,9.15845068359375,-47.789398193359375,14.823532104492188,-0.1258544921875
1711795439169426400,9.168426513671875,-47.74357604980469,14.777099609375,-0.20555877685546875
1711795439179402500,9.178402587890625,-47.90730285644531,14.905410766601562,0.05782318115234375
1711795439189378600,9.188378662109375,-47.7197265625,15.153045654296875,-0.007823944091796875
1711795439199354400,9.198354248046876,-47.81257629394531,15.12359619140625,0.023815155029296875
1711795439209329700,9.20832958984375,-48.12164306640625,15.158157348632812,-0.17963027954101562
1711795439219305500,9.218305419921874,-47.66282653808594,15.3021240234375,-0.01892852783203125
1711795439229281500,9.228281494140624,-47.39585876464844,15.563079833984375,-0.061008453369140625
1711795439239257600,9.238257568359375,-47.57647705078125,15.54730224609375,-0.112457275390625
1711795439249233400,9.2482333984375,-47.28016662597656,15.477828979492188,0.18067550659179688
1711795439259208400,9.25820849609375,-47.35356140136719,15.596832275390625,0.177398681640625
1711795439269184500,9.2681845703125,-47.53564453125,15.643356323242188,-0.039234161376953125
1711795439279160600,9.27816064453125,-47.23199462890625,15.658905029296875,-0.28665924072265625
1711795439289136400,9.288136474609376,-47.35491943359375,15.493576049804688,-0.12388992309570312
1711795439299112400,9.298112548828126,-47.30572509765625,15.71710205078125,-0.22084808349609375
1711795439309087500,9.30808740234375,-47.43794250488281,15.893630981445312,-0.08284759521484375
1711795439319063600,9.3180634765625,-47.145172119140625,15.880828857421875,-0.2156829833984375
1711795439329039600,9.32803955078125,-46.95587158203125,15.881484985351562,-0.22354888916015625
1711795439339015400,9.338015380859375,-47.02470397949219,15.87567138671875,-0.5124740600585938
1711795439348990500,9.347990478515625,-47.23326110839844,16.1214599609375,-0.454345703125
1711795439358966500,9.357966552734375,-47.1265869140625,15.984039306640625,-0.4215049743652344
1711795439368942600,9.367942626953125,-47.332794189453125,15.872299194335938,-0.08330154418945312
1711795439378918400,9.37791845703125,-47.299591064453125,15.875747680664062,-0.14934539794921875
1711795439388894500,9.38789453125,-47.35285949707031,15.68841552734375,0.07022857666015625
1711795439398869500,9.397869384765626,-47.42478942871094,15.8243408203125,-0.0035858154296875
1711795439408845300,9.40784521484375,-47.98973083496094,15.869049072265625,0.18778610229492188
1711795439418821600,9.417821533203124,-47.4122314453125,15.818527221679688,0.18257522583007812
1711795439428797400,9.42779736328125,-47.43891906738281,16.166671752929688,0.33051300048828125
1711795439438773500,9.4377734375,-47.277587890625,16.009765625,0.41405487060546875
1711795439448748500,9.44774853515625,-47.23481750488281,16.147247314453125,0.2939338684082031
1711795439458724600,9.457724609375,-47.03269958496094,16.118301391601562,0.4784507751464844
1711795439468700400,9.467700439453125,-46.85325622558594,16.14739990234375,0.4112281799316406
1711795439478676500,9.477676513671875,-46.920440673828125,16.184356689453125,0.8600425720214844
1711795439488652500,9.487652587890626,-47.196807861328125,16.123809814453125,0.9747238159179688
1711795439498627300,9.49762744140625,-47.308837890625,16.26971435546875,1.1071128845214844
1711795439508603600,9.507603759765624,-47.1077880859375,16.190505981445312,1.2550888061523438
1711795439518579500,9.517579345703124,-47.346771240234375,16.15374755859375,1.2059783935546875
1711795439528555500,9.527555419921875,-47.430328369140625,16.003616333007812,1.2562942504882812
1711795439538531600,9.537531494140625,-47.29200744628906,15.84130859375,1.551177978515625
1711795439548506600,9.547506591796875,-47.3662109375,16.041946411132812,1.7989768981933594
1711795439558482400,9.557482421875,-47.197662353515625,15.961868286132812,1.8218116760253906
1711795439568458500,9.56745849609375,-47.227325439453125,16.121368408203125,1.8950157165527344
1711795439578434600,9.5774345703125,-47.263519287109375,16.193954467773438,1.9349441528320312
1711795439588409300,9.587409423828126,-47.322906494140625,16.323745727539062,2.2750320434570312
1711795439598385700,9.5973857421875,-46.61289978027344,15.990921020507812,2.2714309692382812
1711795439608361500,9.607361572265624,-47.12873840332031,16.102371215820312,2.4032516479492188
1711795439618337300,9.617337158203124,-46.88911437988281,16.357330322265625,2.232635498046875
1711795439628313600,9.627313720703125,-47.08052062988281,16.288162231445312,2.285724639892578
1711795439638288400,9.637288330078125,-47.00764465332031,16.227340698242188,2.582782745361328
1711795439648264400,9.647264404296875,-46.83726501464844,16.098892211914062,2.4257583618164062
1711795439658240500,9.657240478515625,-46.89208984375,16.152191162109375,2.7531509399414062
1711795439668216600,9.667216552734375,-47.30963134765625,16.3087158203125,3.0037384033203125
1711795439678192600,9.677192626953126,-47.28446960449219,16.274215698242188,3.2843284606933594
1711795439688167700,9.687167724609376,-46.89910888671875,16.400222778320312,3.4148597717285156
1711795439698143500,9.6971435546875,-47.39100646972656,16.166275024414062,3.5385169982910156
1711795439708119300,9.707119384765624,-46.683319091796875,15.9256591796875,3.525257110595703
1711795439718095600,9.717095703125,-47.04673767089844,15.75164794921875,3.5429000854492188
1711795439728071400,9.727071533203125,-46.91741943359375,15.80645751953125,3.6836929321289062
1711795439738046500,9.73704638671875,-47.19761657714844,15.578018188476562,3.7643165588378906
1711795439748022500,9.7470224609375,-46.86724853515625,15.512420654296875,3.815418243408203
1711795439757998600,9.75699853515625,-47.278656005859375,15.5565185546875,3.9122467041015625
1711795439767974700,9.766974609375,-47.13105773925781,15.759506225585938,4.020114898681641
1711795439777949700,9.77694970703125,-47.17181396484375,15.752593994140625,4.149089813232422
1711795439787925500,9.786925537109376,-47.21235656738281,15.780075073242188,4.184978485107422
1711795439797901300,9.7969013671875,-47.02864074707031,15.724822998046875,3.958423614501953
1711795439807877600,9.806877685546874,-47.27906799316406,15.409225463867188,4.106513977050781
1711795439817853400,9.816853515625,-47.68292236328125,15.245880126953125,4.034980773925781
1711795439827828500,9.826828369140625,-47.44169616699219,15.10504150390625,3.8385162353515625
1711795439837804500,9.836804443359375,-47.31805419921875,15.215560913085938,3.6577529907226562
1711795439847780400,9.8467802734375,-47.350128173828125,14.895401000976562,3.7879791259765625
1711795439857756700,9.856756591796875,-47.616729736328125,14.828842163085938,3.5538787841796875
1711795439867732500,9.866732421875,-48.12348937988281,14.539321899414062,3.5190086364746094
1711795439877707500,9.87670751953125,-47.89924621582031,14.946273803710938,3.4902877807617188
1711795439887683300,9.886683349609376,-48.03181457519531,14.532318115234375,3.3693695068359375
1711795439897659600,9.89665966796875,-47.9058837890625,14.539276123046875,3.3842735290527344
1711795439907635500,9.906635498046874,-47.86970520019531,14.6807861328125,3.271575927734375
1711795439917611500,9.916611572265625,-48.00053405761719,14.72088623046875,3.2939491271972656
1711795439927586600,9.926586669921875,-47.97306823730469,14.973922729492188,3.5791549682617188
1711795439937562400,9.936562255859375,-47.83454895019531,14.905136108398438,3.5580978393554688
1711795439947538700,9.94653857421875,-48.096710205078125,14.832168579101562,3.629619598388672
1711795439957514500,9.956514404296875,-48.5291748046875,15.003646850585938,3.6171493530273438
1711795439967490600,9.966490478515626,-47.73097229003906,14.732803344726562,3.6963768005371094
1711795439977465300,9.97646533203125,-48.0828857421875,14.963638305664062,3.6007728576660156
1711795439987441700,9.986441650390624,-47.74098205566406,14.91107177734375,3.778827667236328
1711795439997417500,9.99641748046875,-48.0166015625,15.199615478515625,3.945354461669922
1711795440007393500,10.0063935546875,-47.98539733886719,15.130020141601562,3.9196548461914062
1711795440017368600,10.01636865234375,-48.0338134765625,15.175689697265625,3.9791488647460938
1711795440027344400,10.026344482421875,-47.72663879394531,15.631881713867188,3.707439422607422
1711795440037320700,10.03632080078125,-47.781005859375,15.664154052734375,3.7599868774414062
1711795440047296500,10.046296630859375,-47.59480285644531,15.750885009765625,3.8664627075195312
1711795440057272300,10.056272216796875,-47.32220458984375,16.088577270507812,3.954498291015625
1711795440067247400,10.066247314453125,-47.56849670410156,16.0709228515625,3.8927536010742188
1711795440077223400,10.076223388671876,-47.22502136230469,16.385223388671875,3.663299560546875
1711795440087199500,10.086199462890624,-47.2310791015625,16.320724487304688,3.748973846435547
1711795440097175600,10.096175537109374,-47.33599853515625,16.830047607421875,3.8455886840820312
1711795440107151600,10.106151611328125,-47.27740478515625,16.854904174804688,3.7486000061035156
1711795440117126400,10.11612646484375,-47.480194091796875,17.23223876953125,3.9424171447753906
1711795440127102700,10.126102783203125,-47.140960693359375,17.348419189453125,4.109107971191406
1711795440137078500,10.13607861328125,-47.03880310058594,17.608932495117188,4.1612091064453125
1711795440147054300,10.146054443359375,-46.947174072265625,18.161849975585938,4.0615081787109375
1711795440157030700,10.15603076171875,-46.58006286621094,18.290786743164062,4.109752655029297
1711795440167005400,10.16600537109375,-46.713287353515625,18.353988647460938,4.225078582763672
1711795440176981500,10.1759814453125,-46.56599426269531,18.241363525390625,4.089530944824219
1711795440186957600,10.18595751953125,-46.54722595214844,18.269805908203125,4.4401092529296875
1711795440196933600,10.19593359375,-46.38438415527344,18.620208740234375,4.284812927246094
1711795440206908400,10.205908447265625,-46.76898193359375,18.789947509765625,4.4917144775390625
1711795440216884700,10.215884765625,-46.8043212890625,18.651626586914062,4.615592956542969
1711795440226860500,10.225860595703125,-46.75267028808594,18.743316650390625,4.499610900878906
1711795440236836400,10.23583642578125,-46.749359130859375,19.105743408203125,4.7655792236328125
1711795440246812700,10.245812744140625,-46.852294921875,19.109222412109375,4.999744415283203
1711795440256787500,10.255787353515625,-46.352142333984375,19.28631591796875,5.104888916015625
1711795440266763500,10.265763427734376,-46.63554382324219,19.42974853515625,4.910163879394531
1711795440276739600,10.275739501953124,-46.47755432128906,19.441574096679688,4.9126434326171875
1711795440286715400,10.28571533203125,-46.168853759765625,19.384613037109375,5.222389221191406
1711795440296691500,10.29569140625,-46.16712951660156,19.537246704101562,5.169513702392578
1711795440306666500,10.30566650390625,-46.06413269042969,19.729415893554688,5.012500762939453
1711795440316642600,10.315642578125,-45.831787109375,19.606353759765625,5.3770751953125
1711795440326618400,10.325618408203125,-46.175750732421875,19.394912719726562,5.218677520751953
1711795440336594700,10.3355947265625,-45.90571594238281,19.595260620117188,5.3332672119140625
1711795440346569500,10.345569580078125,-46.32774353027344,19.286102294921875,5.633800506591797
1711795440356545500,10.355545654296876,-46.36277770996094,19.363174438476562,5.509586334228516
1711795440366521600,10.365521484375,-46.368682861328125,19.096176147460938,5.523212432861328
1711795440376497400,10.375497314453124,-46.10528564453125,18.84722900390625,5.697990417480469
1711795440386473500,10.385473388671874,-46.45353698730469,18.907913208007812,5.725467681884766
1711795440396448500,10.395448486328124,-46.208740234375,19.199371337890625,5.634956359863281
1711795440406424600,10.405424560546875,-46.09820556640625,19.155380249023438,5.828922271728516
1711795440416400400,10.415400390625,-45.90681457519531,19.613739013671875,5.966300964355469
1711795440426376700,10.425376708984375,-45.884063720703125,19.495361328125,5.726127624511719
1711795440436352500,10.4353525390625,-45.96446228027344,19.692489624023438,5.895587921142578
1711795440446327600,10.44532763671875,-46.01411437988281,19.6923828125,5.949089050292969
1711795440456303600,10.4553037109375,-46.26637268066406,19.805206298828125,5.8901214599609375
1711795440466279400,10.465279541015626,-45.95695495605469,19.47430419921875,5.911903381347656
1711795440476255500,10.47525537109375,-46.02079772949219,19.269546508789062,5.9850311279296875
1711795440486230500,10.48523046875,-46.104034423828125,18.98419189453125,6.211326599121094
1711795440496206600,10.49520654296875,-46.02732849121094,18.813461303710938,6.68743896484375
1711795440506182400,10.505182373046875,-46.43681335449219,18.656158447265625,6.751728057861328
1711795440516158500,10.515158447265625,-46.77073669433594,18.328231811523438,7.23516845703125
1711795440526134500,10.525134521484375,-46.64149475097656,18.091903686523438,7.437183380126953
1711795440536109600,10.535109619140625,-46.55207824707031,17.834487915039062,7.747005462646484
1711795440546085600,10.545085693359376,-46.43742370605469,17.492431640625,7.7662811279296875
1711795440556061400,10.5550615234375,-46.315582275390625,17.085067749023438,8.177677154541016
1711795440566037500,10.56503759765625,-46.49055480957031,16.759765625,8.374824523925781
1711795440576013600,10.575013671875,-47.04350280761719,16.597930908203125,8.514274597167969
1711795440585988600,10.584988525390624,-46.60478210449219,16.3304443359375,8.55218505859375
1711795440595964400,10.59496435546875,-46.638519287109375,16.192291259765625,8.763580322265625
1711795440605940500,10.6049404296875,-47.03118896484375,15.845230102539062,9.33248519897461
1711795440615916500,10.61491650390625,-46.96202087402344,15.571853637695312,9.484912872314453
1711795440625891300,10.624891357421875,-47.125396728515625,15.251541137695312,9.952632904052734
1711795440635867600,10.63486767578125,-46.783233642578125,15.271347045898438,10.498004913330078
1711795440645843500,10.644843505859376,-46.69108581542969,14.881027221679688,10.804027557373047
1711795440655819500,10.654819580078126,-46.64546203613281,14.634811401367188,11.424797058105469
1711795440665795600,10.664795654296874,-46.75837707519531,14.095535278320312,11.61410140991211
1711795440675770600,10.6747705078125,-46.68913269042969,13.4256591796875,12.377574920654297
1711795440685746400,10.684746337890624,-46.472412109375,12.92095947265625,12.810260772705078
1711795440695722500,10.694722412109375,-46.299774169921875,12.318603515625,13.2489013671875
1711795440705698600,10.704698486328125,-46.613067626953125,11.6903076171875,13.667774200439453
1711795440715674400,10.71467431640625,-46.44648742675781,11.084442138671875,14.766502380371094
1711795440725649700,10.724649658203125,-46.197021484375,10.583328247070312,15.314506530761719
1711795440735625500,10.73462548828125,-46.277587890625,10.348464965820312,15.940998077392578
1711795440745601500,10.7446015625,-46.40290832519531,9.560379028320312,16.517562866210938
1711795440755577600,10.75457763671875,-46.14314270019531,9.110305786132812,17.132183074951172
1711795440765552600,10.764552734375,-46.29405212402344,8.508392333984375,17.342456817626953
1711795440775528400,10.774528564453124,-45.924713134765625,7.8845367431640625,17.96874237060547
1711795440785504500,10.78450439453125,-45.70613098144531,7.2480316162109375,18.333534240722656
1711795440795480600,10.79448046875,-45.853271484375,6.77978515625,18.75164031982422
1711795440805456400,10.804456298828125,-45.757781982421875,6.13360595703125,19.1778564453125
1711795440815431700,10.814431640625,-45.907684326171875,5.8704986572265625,19.41089630126953
1711795440825407500,10.824407470703125,-45.67036437988281,5.2941131591796875,19.894004821777344
1711795440835383300,10.83438330078125,-45.81922912597656,4.833717346191406,19.958572387695312
1711795440845359600,10.844359619140626,-45.53221130371094,4.410499572753906,20.1773681640625
1711795440855335400,10.85433544921875,-45.625579833984375,3.5562057495117188,20.5726318359375
1711795440865310500,10.864310546875,-45.50044250488281,3.204071044921875,20.870361328125
1711795440875286500,10.87428662109375,-45.38298034667969,2.9748687744140625,21.516277313232422
1711795440885262600,10.8842626953125,-45.205413818359375,2.2698287963867188,21.772506713867188
1711795440895238400,10.89423828125,-45.23553466796875,2.015655517578125,22.23218536376953
1711795440905213700,10.904213623046875,-45.23834228515625,1.3407211303710938,22.24557876586914
1711795440915189500,10.914189453125,-44.48402404785156,0.89630126953125,22.500797271728516
1711795440925165300,10.924165283203125,-44.43498229980469,0.7229080200195312,22.516815185546875
1711795440935141600,10.9341416015625,-44.70896911621094,0.0079498291015625,22.93389892578125
1711795440945117400,10.944117431640626,-44.86700439453125,-0.306488037109375,22.902366638183594
1711795440955092500,10.954092529296876,-44.40594482421875,-0.8046646118164062,23.255695343017578
1711795440965068500,10.964068603515624,-44.322296142578125,-0.9846343994140625,23.46859359741211
1711795440975044600,10.974044677734375,-44.22782897949219,-1.4252395629882812,23.53449249267578
1711795440985020400,10.9840205078125,-43.87660217285156,-1.6835479736328125,23.94205093383789
1711795440994996700,10.993996826171875,-43.54270935058594,-2.0048904418945312,24.116195678710938
1711795441004971800,11.0039716796875,-43.421051025390625,-1.945831298828125,24.090023040771484
1711795441014947600,11.013947509765625,-43.28260803222656,-2.1755447387695312,24.05349349975586
1711795441024924000,11.023923828125,-43.28828430175781,-2.6331558227539062,23.969078063964844
1711795441034899700,11.033899658203126,-43.40509033203125,-2.73846435546875,24.395553588867188
1711795441044874800,11.043874755859376,-43.0205078125,-2.9990158081054688,24.307979583740234
1711795441054850800,11.053850830078124,-43.33433532714844,-3.0076217651367188,24.442527770996094
1711795441064826600,11.06382666015625,-43.651885986328125,-3.181365966796875,24.225006103515625
1711795441074802700,11.073802734375,-43.320037841796875,-3.3999252319335938,24.017955780029297
1711795441084778800,11.08377880859375,-43.29335021972656,-3.57623291015625,23.994037628173828
1711795441094753800,11.09375390625,-43.42596435546875,-3.54461669921875,24.452194213867188
1711795441104729600,11.1037294921875,-42.92437744140625,-3.8362274169921875,24.216468811035156
1711795441114706000,11.113705810546875,-42.942535400390625,-4.1027069091796875,24.099098205566406
1711795441124681700,11.123681640625,-42.94232177734375,-4.253578186035156,24.152061462402344
1711795441134656800,11.13365673828125,-42.7633056640625,-4.483619689941406,24.08761215209961
1711795441144632800,11.1436328125,-42.95286560058594,-4.64263916015625,24.105915069580078
1711795441154608600,11.153608642578124,-43.154632568359375,-4.532684326171875,24.107826232910156
1711795441164584700,11.163584716796874,-43.019775390625,-4.9932861328125,24.091079711914062
1711795441174560800,11.173560791015625,-43.15434265136719,-4.937843322753906,24.377269744873047
1711795441184535800,11.183535888671875,-43.16349792480469,-4.9675750732421875,24.182022094726562
1711795441194511600,11.19351171875,-43.41864013671875,-5.1063690185546875,24.089393615722656
1711795441204487700,11.20348779296875,-43.211944580078125,-5.234184265136719,23.620323181152344
1711795441214463700,11.213463623046875,-43.173553466796875,-5.00555419921875,23.48442840576172
1711795441224438800,11.223438720703125,-43.02207946777344,-5.10430908203125,23.52033233642578
1711795441234414800,11.233414794921876,-43.10768127441406,-5.306976318359375,23.46487808227539
1711795441244390700,11.243390625,-43.130401611328125,-5.485389709472656,23.737682342529297
1711795441254366700,11.25336669921875,-43.29119873046875,-5.172943115234375,23.615509033203125
1711795441264342800,11.2633427734375,-43.21723937988281,-5.155479431152344,23.782909393310547
1711795441274317800,11.27331787109375,-42.967681884765625,-5.1894989013671875,23.6259765625
1711795441284293600,11.283293701171875,-43.03797912597656,-5.263114929199219,23.758163452148438
1711795441294269700,11.293269775390625,-42.97990417480469,-5.303367614746094,23.557010650634766
1711795441304245800,11.303245849609375,-42.88166809082031,-5.268310546875,23.57999038696289
1711795441314221600,11.3132216796875,-43.114837646484375,-5.478759765625,23.72854995727539
1711795441324196900,11.32319677734375,-42.964813232421875,-5.495208740234375,23.59222412109375
1711795441334172700,11.333172607421876,-43.14947509765625,-5.632347106933594,23.592666625976562
1711795441344148700,11.343148681640624,-42.85157775878906,-5.488861083984375,23.550067901611328
1711795441354124800,11.353124755859374,-43.10285949707031,-5.510406494140625,23.5675048828125
1711795441364099800,11.363099853515624,-43.0225830078125,-5.694145202636719,23.62255859375
1711795441374075600,11.37307568359375,-43.013824462890625,-5.7449188232421875,23.60871124267578
1711795441384051700,11.3830517578125,-42.74310302734375,-5.955574035644531,23.668792724609375
1711795441394027800,11.39302783203125,-42.4744873046875,-5.8525238037109375,23.876312255859375
1711795441404003600,11.403003662109375,-42.43194580078125,-5.622039794921875,23.81772232055664
1711795441413979000,11.412978759765625,-42.533050537109375,-5.455329895019531,23.68846893310547
1711795441423954700,11.42295458984375,-42.675323486328125,-5.4165802001953125,23.50536346435547
1711795441433930800,11.4329306640625,-42.51506042480469,-5.547554016113281,23.472583770751953
1711795441443906800,11.44290673828125,-42.78509521484375,-5.5612030029296875,23.801986694335938
1711795441453881900,11.4528818359375,-42.85527038574219,-5.441719055175781,24.112476348876953
1711795441463857700,11.462857666015625,-42.649200439453125,-5.532829284667969,24.075637817382812
1711795441473833700,11.472833740234375,-42.65071105957031,-5.4632110595703125,23.95006561279297
1711795441483809800,11.482809814453125,-42.527801513671875,-5.4498138427734375,23.894535064697266
1711795441493785600,11.49278564453125,-42.7303466796875,-5.459037780761719,23.955078125
1711795441503761000,11.502760986328125,-42.46946716308594,-5.597679138183594,24.324417114257812
1711795441513736700,11.51273681640625,-42.75968933105469,-5.820884704589844,24.336910247802734
1711795441523712500,11.52271240234375,-42.877349853515625,-5.562629699707031,24.369754791259766
1711795441533688800,11.532688720703124,-42.411102294921875,-5.681510925292969,24.38302993774414
1711795441543664600,11.54266455078125,-42.31915283203125,-5.643135070800781,24.56015396118164
1711795441553639700,11.5526396484375,-42.071807861328125,-5.616218566894531,24.316272735595703
1711795441563615700,11.56261572265625,-42.47431945800781,-5.591728210449219,24.555553436279297
1711795441573591800,11.572591796875,-41.99794006347656,-5.492179870605469,24.649478912353516
1711795441583567600,11.582567626953125,-41.96159362792969,-5.5021209716796875,24.396831512451172
1711795441593543000,11.59254296875,-41.615020751953125,-5.4985504150390625,24.573013305664062
1711795441603518700,11.602518798828125,-42.026153564453125,-5.502494812011719,24.677528381347656
1711795441613494500,11.61249462890625,-41.4658203125,-5.517356872558594,24.759780883789062
1711795441623470800,11.622470947265626,-41.583404541015625,-5.469146728515625,24.52523422241211
1711795441633445600,11.632445556640626,-41.611053466796875,-5.424400329589844,25.04476547241211
1711795441643421700,11.642421630859374,-41.86944580078125,-5.23822021484375,25.032909393310547
1711795441653397800,11.652397705078124,-41.77595520019531,-5.5725860595703125,25.10544204711914
1711795441663373800,11.662373779296875,-41.854095458984375,-5.651313781738281,25.023040771484375
1711795441673349600,11.672349609375,-42.06217956542969,-5.864494323730469,25.398590087890625
1711795441683325000,11.682324951171875,-41.75340270996094,-5.907096862792969,25.28420639038086
1711795441693300700,11.69230078125,-41.86602783203125,-5.837074279785156,25.509979248046875
1711795441703276500,11.702276611328125,-41.86289978027344,-5.663993835449219,25.38896942138672
1711795441713252900,11.7122529296875,-41.637969970703125,-5.624176025390625,25.437152862548828
1711795441723227600,11.7222275390625,-41.15565490722656,-5.479911804199219,25.675777435302734
1711795441733203700,11.73220361328125,-41.147186279296875,-5.572517395019531,25.788734436035156
1711795441743179800,11.7421796875,-41.18994140625,-5.619407653808594,25.6942138671875
1711795441753155600,11.752155517578124,-41.16975402832031,-5.7779693603515625,25.985336303710938
1711795441763131600,11.762131591796875,-41.39891052246094,-5.863128662109375,25.870834350585938
1711795441773106700,11.772106689453125,-40.77037048339844,-5.755790710449219,26.075668334960938
1711795441783082800,11.782082763671875,-40.52626037597656,-5.724891662597656,26.076602935791016
1711795441793058600,11.79205859375,-41.07057189941406,-5.495826721191406,26.221920013427734
1711795441803035000,11.802034912109375,-40.849700927734375,-5.67694091796875,26.09213638305664
1711795441813009700,11.812009765625,-40.77485656738281,-5.506683349609375,26.207595825195312
1711795441822985700,11.82198583984375,-40.609375,-5.634147644042969,26.236061096191406
1711795441832961800,11.8319619140625,-40.493927001953125,-5.769401550292969,26.336631774902344
1711795441842937600,11.8419375,-40.422149658203125,-5.6803436279296875,26.690208435058594
1711795441852913700,11.85191357421875,-40.37507629394531,-5.65264892578125,26.447021484375
1711795441862888700,11.861888671875,-40.48808288574219,-5.607086181640625,26.82904052734375
1711795441872864800,11.87186474609375,-40.316741943359375,-5.6354217529296875,26.685653686523438
1711795441882840600,11.881840576171875,-40.09739685058594,-5.5247802734375,26.711135864257812
1711795441892817000,11.89181689453125,-40.2061767578125,-5.6659698486328125,26.93665313720703
1711795441902791700,11.901791748046875,-40.19288635253906,-5.644355773925781,26.97803497314453
1711795441912767700,11.911767822265626,-40.018829345703125,-5.697052001953125,27.097213745117188
1711795441922743800,11.921743896484376,-39.82054138183594,-5.592430114746094,27.291305541992188
1711795441932719600,11.9317197265625,-39.867279052734375,-5.351936340332031,27.129928588867188
1711795441942695700,11.94169580078125,-39.973297119140625,-5.369438171386719,27.16571807861328
1711795441952670700,11.951670654296874,-39.857025146484375,-5.522575378417969,27.070892333984375
1711795441962646800,11.961646728515625,-39.78271484375,-5.4544525146484375,27.252334594726562
1711795441972622600,11.97162255859375,-39.56303405761719,-5.742340087890625,27.258071899414062
1711795441982598700,11.9815986328125,-39.72193908691406,-5.3860015869140625,27.36785888671875
1711795441992573200,11.9915732421875,-39.58238220214844,-5.064613342285156,27.51671600341797
1711795442002549200,12.00154931640625,-39.11930847167969,-5.146980285644531,27.137405395507812
1711795442012525300,12.011525390625,-39.664886474609375,-5.104911804199219,27.31890106201172
1711795442022501000,12.021501220703126,-39.58183288574219,-5.115142822265625,27.180374145507812
1711795442032477200,12.031477294921874,-39.52622985839844,-5.03729248046875,27.482566833496094
1711795442042452200,12.0414521484375,-39.60011291503906,-4.862297058105469,27.476409912109375
1711795442052428300,12.05142822265625,-39.42657470703125,-4.744171142578125,27.337989807128906
1711795442062404000,12.061404052734375,-39.498748779296875,-4.924659729003906,27.41998291015625
1711795442072380400,12.07138037109375,-39.331573486328125,-5.171958923339844,27.54228973388672
1711795442082355200,12.081355224609375,-39.14361572265625,-5.373527526855469,27.447349548339844
1711795442092331300,12.091331298828125,-39.07902526855469,-4.970558166503906,27.24016571044922
1711795442102307300,12.101307373046875,-39.12855529785156,-5.1922454833984375,27.311065673828125
1711795442112283100,12.111283203125,-39.244293212890625,-5.147956848144531,27.453895568847656
1711795442122259200,12.12125927734375,-39.57704162597656,-5.2061309814453125,27.43456268310547
1711795442132234200,12.131234130859376,-39.459869384765625,-5.469917297363281,27.143661499023438
1711795442142210300,12.141210205078124,-39.45587158203125,-5.532440185546875,27.032562255859375
1711795442152186000,12.15118603515625,-39.54154968261719,-5.4900665283203125,26.96678924560547
1711795442162162200,12.161162109375,-39.366668701171875,-5.562004089355469,26.860206604003906
1711795442172137200,12.17113720703125,-39.477813720703125,-5.488563537597656,26.901153564453125
1711795442182113300,12.18111328125,-39.4178466796875,-5.305419921875,26.82386016845703
1711795442192089300,12.19108935546875,-39.34910583496094,-5.2152099609375,26.878013610839844
1711795442202065200,12.201065185546875,-39.42218017578125,-5.574043273925781,26.62320327758789
1711795442212041200,12.211041259765626,-39.51493835449219,-5.5966796875,26.472816467285156
1711795442222016300,12.221016357421876,-39.53636169433594,-5.512115478515625,26.576148986816406
1711795442231992300,12.230992431640624,-39.8175048828125,-5.5289154052734375,26.66387176513672
1711795442241968000,12.240968017578124,-39.23681640625,-5.561912536621094,26.80774688720703
1711795442251944200,12.250944091796875,-39.40660095214844,-5.3907012939453125,26.495845794677734
1711795442261919200,12.260919189453125,-39.2344970703125,-5.4644927978515625,26.708396911621094
1711795442271895300,12.270895263671875,-39.185394287109375,-5.5426483154296875,26.65066146850586
1711795442281871400,12.280871337890625,-39.3516845703125,-5.48223876953125,26.469322204589844
1711795442291847200,12.29084716796875,-39.23356628417969,-5.536895751953125,26.274547576904297
1711795442301823200,12.3008232421875,-39.482086181640625,-5.484336853027344,26.434967041015625
1711795442311798300,12.31079833984375,-39.81666564941406,-5.8076934814453125,26.170379638671875
1711795442321774300,12.3207744140625,-39.6072998046875,-5.8522491455078125,26.15243911743164
1711795442331750100,12.330750244140624,-39.33454895019531,-5.671775817871094,26.326847076416016
1711795442341726200,12.340726318359375,-39.19544982910156,-5.686309814453125,26.217571258544922
1711795442351701200,12.350701171875,-39.23377990722656,-5.5042877197265625,26.214488983154297
1711795442361677000,12.360677001953125,-39.29042053222656,-5.574562072753906,26.49361801147461
1711795442371653400,12.3706533203125,-39.37065124511719,-5.554634094238281,26.300098419189453
1711795442381629200,12.380629150390625,-39.57624816894531,-5.721710205078125,26.230709075927734
1711795442391604200,12.390604248046875,-39.65338134765625,-5.88134765625,26.415908813476562
1711795442401580300,12.400580322265625,-39.48280334472656,-5.6813812255859375,26.474849700927734
1711795442411556400,12.410556396484376,-38.794830322265625,-5.7483062744140625,26.483753204345703
1711795442421532200,12.4205322265625,-39.369293212890625,-5.7674560546875,26.042781829833984
1711795442431508200,12.43050830078125,-39.13475036621094,-5.577049255371094,26.191913604736328
1711795442441483300,12.440483154296874,-39.375091552734375,-5.3219146728515625,26.168514251708984
1711795442451459000,12.450458984375,-39.445098876953125,-5.4509429931640625,26.05298614501953
1711795442461435400,12.460435302734375,-39.513214111328125,-5.561317443847656,25.793819427490234
1711795442471411200,12.4704111328125,-39.223663330078125,-5.315757751464844,25.833507537841797
1711795442481386200,12.48038623046875,-39.338714599609375,-5.1917572021484375,25.977214813232422
1711795442491362300,12.4903623046875,-39.129180908203125,-5.360321044921875,25.928001403808594
1711795442501338400,12.50033837890625,-39.32521057128906,-5.3748626708984375,25.997787475585938
1711795442511314200,12.510314208984376,-39.19636535644531,-5.218467712402344,25.747303009033203
1711795442521290200,12.520290283203124,-39.32574462890625,-5.206855773925781,25.734851837158203
1711795442531265300,12.530265380859374,-39.605255126953125,-5.279205322265625,25.75738525390625
1711795442541241000,12.540240966796874,-39.51170349121094,-5.389564514160156,26.129562377929688
1711795442551217400,12.550217529296875,-39.516387939453125,-5.558692932128906,25.812252044677734
1711795442561193200,12.560193115234375,-39.56105041503906,-5.47760009765625,25.756805419921875
1711795442571168300,12.570168212890625,-39.537139892578125,-5.7873382568359375,25.94601821899414
1711795442581144300,12.580144287109375,-39.437774658203125,-5.912567138671875,26.109947204589844
1711795442591120100,12.5901201171875,-39.2783203125,-6.194862365722656,26.22317886352539
1711795442601096200,12.60009619140625,-39.34324645996094,-6.294746398925781,26.122753143310547
1711795442611071200,12.6100712890625,-39.00465393066406,-6.707061767578125,25.920860290527344
1711795442621047300,12.62004736328125,-38.55076599121094,-6.937400817871094,26.065452575683594
1711795442631023000,12.630023193359374,-38.385101318359375,-7.1146697998046875,26.29895782470703
1711795442640999400,12.63999951171875,-38.50352478027344,-7.1300811767578125,26.11733627319336
1711795442650975200,12.649975341796875,-38.29350280761719,-7.24053955078125,26.38125991821289
1711795442660950300,12.6599501953125,-38.49583435058594,-7.196418762207031,26.299903869628906
1711795442670926300,12.66992626953125,-38.596649169921875,-7.287101745605469,26.225772857666016
1711795442680902100,12.679902099609375,-38.550262451171875,-7.2758636474609375,26.16777801513672
1711795442690878200,12.689878173828125,-38.581085205078125,-7.0292816162109375,26.070724487304688
1711795442700853200,12.699853271484375,-38.21913146972656,-7.1502227783203125,26.047195434570312
1711795442710829300,12.709829345703126,-38.09234619140625,-7.001472473144531,26.026077270507812
1711795442720805000,12.71980517578125,-38.12103271484375,-7.117164611816406,26.00586700439453
1711795442730781400,12.729781494140624,-38.664306640625,-6.906074523925781,25.979984283447266
1711795442740757200,12.73975732421875,-38.231414794921875,-7.036643981933594,26.03646469116211
1711795442750732300,12.749732177734375,-38.472442626953125,-6.931983947753906,26.099098205566406
1711795442760708400,12.759708251953125,-38.44122314453125,-6.979156494140625,25.900142669677734
1711795442770684200,12.76968408203125,-38.40087890625,-6.743438720703125,26.115577697753906
1711795442780660200,12.77966015625,-38.109222412109375,-6.787879943847656,26.133949279785156
1711795442790635300,12.78963525390625,-38.111572265625,-7.0578155517578125,26.331832885742188
1711795442800611300,12.799611328125,-38.14054870605469,-6.909568786621094,26.277191162109375
1711795442810587100,12.809587158203126,-38.236175537109375,-7.075813293457031,26.598289489746094
1711795442820563200,12.819563232421874,-38.31752014160156,-7.190826416015625,26.8199462890625
1711795442830538200,12.829538330078124,-37.80499267578125,-7.348289489746094,26.91808319091797
1711795442840514300,12.839514404296875,-38.23748779296875,-7.5201873779296875,26.95800018310547
1711795442850490400,12.849490478515625,-38.23609924316406,-7.4402618408203125,27.267181396484375
1711795442860466200,12.859466064453125,-38.20018005371094,-7.087860107421875,27.07556915283203
1711795442870442200,12.869442138671875,-37.958251953125,-7.287696838378906,27.130844116210938
1711795442880417300,12.879417236328125,-37.89747619628906,-7.517066955566406,27.23255157470703
