time,seconds_elapsed,z,y,x
1714217592630296000,0.101296142578125,0.11461000144481659,0.039066001772880554,0.0031560000497847795
1714217592639943700,0.110943603515625,0.2793729901313782,0.04049199819564819,-0.0038449999410659075
1714217592649591300,0.12059130859375,0.4202840030193329,0.041134998202323914,0.00203300011344254
1714217592659239000,0.130239013671875,0.3386389911174774,0.02178099937736988,0.006393000017851591
1714217592668886800,0.13988671875,0.24755600094795227,0.03572700172662735,-0.002245000097900629
1714217592678534400,0.149534423828125,0.1072700023651123,0.02618199959397316,-0.003145999973639846
1714217592688181800,0.159181640625,0.01296399999409914,0.09987100213766098,-0.02331800013780594
1714217592697829600,0.16882958984375,0.013478999957442284,0.09566599875688553,-0.10353700071573257
1714217592707477200,0.178477294921875,0.00023600000713486224,0.14707300066947937,-0.2522819936275482
1714217592717124900,0.188124755859375,-0.05397599935531616,0.19939999282360077,-0.3738250136375427
1714217592726772500,0.1977724609375,-0.0945729985833168,0.1565759927034378,-0.43977901339530945
1714217592736420400,0.20742041015625,-0.16238300502300262,0.14097000658512115,-0.43603000044822693
1714217592746068000,0.21706787109375,-0.1757960021495819,0.12616600096225739,-0.37721699476242065
1714217592755715600,0.226715576171875,-0.16220299899578094,0.1677590012550354,-0.25095000863075256
1714217592765363200,0.23636328125,-0.2442380040884018,0.2389409989118576,-0.17966699600219727
1714217592775010800,0.2460107421875,-0.14958499372005463,0.2998279929161072,-0.18940900266170502
1714217592784658400,0.255658447265625,-0.04170199856162071,0.2415429949760437,-0.22626499831676483
1714217592794306000,0.26530615234375,0.06579100340604782,0.26846399903297424,-0.1677519977092743
1714217592803954000,0.274953857421875,0.2820039987564087,0.2842479944229126,-0.16272300481796265
1714217592813601500,0.2846015625,0.4164409935474396,0.2736319899559021,-0.19792500138282776
1714217592823249200,0.294249267578125,0.5237190127372742,0.2761240005493164,-0.3151780068874359
1714217592832896800,0.303896728515625,0.6311399936676025,0.33187898993492126,-0.3925650119781494
1714217592842544600,0.313544677734375,0.6434800028800964,0.35790398716926575,-0.525879979133606
1714217592852192300,0.323192138671875,0.5335540175437927,0.3672409951686859,-0.578728973865509
1714217592861839600,0.332839599609375,0.383078008890152,0.3873029947280884,-0.5363919734954834
1714217592871487500,0.342487548828125,0.3144899904727936,0.37872499227523804,-0.4934000074863434
1714217592881135000,0.352135009765625,0.3140529990196228,0.38334399461746216,-0.4366309940814972
1714217592890782700,0.36178271484375,0.31367599964141846,0.4010089933872223,-0.36637601256370544
1714217592900430300,0.371430419921875,0.38161399960517883,0.4166240096092224,-0.3370380103588104
1714217592910078200,0.381078125,0.39537400007247925,0.49721699953079224,-0.33599498867988586
1714217592919725600,0.3907255859375,0.2732490003108978,0.5607979893684387,-0.28219500184059143
1714217592929373400,0.40037353515625,0.06969299912452698,0.5804010033607483,-0.2845970094203949
1714217592939021000,0.41002099609375,-0.25628501176834106,0.5847359895706177,-0.2608709931373596
1714217592948668700,0.419668701171875,-0.5142470002174377,0.5627470016479492,-0.16887399554252625
1714217592958316300,0.42931640625,-0.5954269766807556,0.48923298716545105,-0.14351999759674072
1714217592967964000,0.4389638671875,-0.5134850144386292,0.4327940046787262,-0.12947900593280792
1714217592977611800,0.44861181640625,-0.2955699861049652,0.43332400918006897,-0.08628900349140167
1714217592987259400,0.45825927734375,-0.07769200205802917,0.4617210030555725,-0.13707999885082245
1714217592996906800,0.46790673828125,0.0450190007686615,0.5295339822769165,-0.17330799996852875
1714217593006554600,0.4775546875,0.12716199457645416,0.6083189845085144,-0.15486399829387665
1714217593016202200,0.4872021484375,0.0597510002553463,0.6164060235023499,-0.12346299737691879
1714217593025849900,0.496849853515625,-0.184580996632576,0.6093260049819946,-0.10709500312805176
1714217593035497500,0.50649755859375,-0.37448498606681824,0.520950973033905,-0.1049019992351532
1714217593045145000,0.51614501953125,-0.4556730091571808,0.48934000730514526,-0.089028000831604
1714217593054793000,0.52579296875,-0.36015599966049194,0.4609990119934082,-0.07304900139570236
1714217593064440600,0.535440673828125,-0.183228999376297,0.4762830138206482,-0.016628000885248184
1714217593074088200,0.545088134765625,-0.0201019998639822,0.4929809868335724,-0.08376500010490417
1714217593083735800,0.55473583984375,0.0476670004427433,0.5231890082359314,-0.09762600064277649
1714217593093383400,0.564383544921875,0.08827900141477585,0.5388669967651367,-0.07138100266456604
1714217593103031000,0.574031005859375,0.047272998839616776,0.5533729791641235,-0.005348000209778547
1714217593112678700,0.5836787109375,-0.03453199937939644,0.5806999802589417,0.08677999675273895
1714217593122326300,0.593326171875,-0.08905500173568726,0.5939559936523438,0.15130899846553802
1714217593131974000,0.602973876953125,-0.15717600286006927,0.6751469969749451,0.12057200074195862
1714217593141621500,0.61262158203125,-0.1980219930410385,0.7697449922561646,-0.059516001492738724
1714217593151269000,0.62226904296875,-0.19792500138282776,0.8910679817199707,-0.1703920066356659
1714217593160916700,0.631916748046875,-0.15687300264835358,0.9163399934768677,-0.23962900042533875
1714217593170564600,0.641564697265625,-0.18387700617313385,0.9955940246582031,-0.17316600680351257
1714217593180212200,0.651212158203125,-0.1427769958972931,1.0202209949493408,-0.06656599789857864
1714217593189859800,0.66085986328125,-0.1697939932346344,0.9766839742660522,-0.02916100062429905
1714217593199507700,0.6705078125,-0.251336008310318,0.9469820261001587,-0.00646300008520484
1714217593209155000,0.680155029296875,-0.25126901268959045,0.9044960141181946,-0.06659100204706192
1714217593218802700,0.689802734375,-0.29225799441337585,0.9043840169906616,-0.1964779943227768
1714217593228450600,0.699450439453125,-0.2925949990749359,0.8788120150566101,-0.2727380096912384
1714217593238098200,0.70909814453125,-0.2659029960632324,0.8551009893417358,-0.32242798805236816
1714217593247745800,0.718745849609375,-0.19854900240898132,0.8332399725914001,-0.37247800827026367
1714217593257393400,0.728393310546875,-0.18579499423503876,0.7989770174026489,-0.35418498516082764
1714217593267041000,0.738041015625,-0.07779999822378159,0.8067730069160461,-0.2531319856643677
1714217593276688600,0.747688720703125,0.09820199757814407,0.788441002368927,-0.04208499938249588
1714217593286336300,0.757336181640625,0.3286370038986206,0.7843120098114014,0.08720500022172928
1714217593295983900,0.76698388671875,0.4910840094089508,0.8745589852333069,0.12103699892759323
1714217593305631700,0.7766318359375,0.5857620239257812,0.9345859885215759,0.10082200169563293
1714217593315279400,0.786279296875,0.5583130121231079,1.0040379762649536,0.013388000428676605
1714217593324927000,0.795927001953125,0.44958600401878357,1.1511130332946777,-0.08703300356864929
1714217593334574300,0.80557421875,0.34119099378585815,1.2951279878616333,-0.17323100566864014
1714217593344222500,0.815222412109375,0.05592700093984604,1.260382056236267,-0.1629280000925064
1714217593353870000,0.8248701171875,-0.21570099890232086,1.1577340364456177,-0.1091649979352951
1714217593363517400,0.834517333984375,-0.28327399492263794,0.98956298828125,0.029008999466896057
1714217593373165600,0.84416552734375,-0.2424049973487854,0.8943809866905212,0.07238399982452393
1714217593382813000,0.85381298828125,-0.14765200018882751,0.886381983757019,-0.034949999302625656
1714217593392460500,0.86346044921875,0.11007999628782272,0.9099680185317993,-0.14277899265289307
1714217593402108200,0.873108154296875,0.3131589889526367,0.9488210082054138,-0.2515439987182617
1714217593411756000,0.882756103515625,0.39368799328804016,0.9873030185699463,-0.3348810076713562
1714217593421403400,0.8924033203125,0.43350398540496826,1.0106509923934937,-0.40661299228668213
1714217593431051000,0.902051025390625,0.3781749904155731,1.0183730125427246,-0.4259740114212036
1714217593440698600,0.91169873046875,0.2685590088367462,1.010599970817566,-0.35047999024391174
1714217593450346200,0.92134619140625,0.18630599975585938,0.9336829781532288,-0.31481099128723145
1714217593459994000,0.930994140625,0.022352999076247215,0.8567050099372864,-0.33222201466560364
1714217593469641500,0.940641357421875,-0.03275199979543686,0.8219550251960754,-0.27922600507736206
1714217593479289000,0.9502890625,0.1299320012331009,0.7751510143280029,-0.22401399910449982
1714217593488937000,0.95993701171875,0.22444799542427063,0.7835739850997925,-0.20968200266361237
1714217593498584600,0.96958447265625,0.2917479872703552,0.7917670011520386,-0.20957300066947937
1714217593508232200,0.979232177734375,0.3455969989299774,0.7710369825363159,-0.16872499883174896
1714217593517879800,0.9888798828125,0.31794100999832153,0.7752509713172913,-0.06066799908876419
1714217593527527700,0.998527587890625,0.24960599839687347,0.6822029948234558,-0.03518600016832352
1714217593537175300,1.00817529296875,0.24952200055122375,0.6283990144729614,0.003234999952837825
1714217593546823000,1.017822998046875,0.19512400031089783,0.5864419937133789,0.05459300056099892
1714217593556470500,1.027470458984375,0.12727800011634827,0.5291270017623901,-0.002435999922454357
1714217593566118100,1.0371181640625,0.08681400120258331,0.552191972732544,-0.0033480001147836447
1714217593575765800,1.046765869140625,0.1690869927406311,0.5602160096168518,-0.07034999877214432
1714217593585413400,1.056413330078125,0.15623800456523895,0.5933889746665955,-0.04059400036931038
1714217593595061000,1.06606103515625,0.07553700357675552,0.5969669818878174,-0.00925000011920929
1714217593604708900,1.075708984375,-0.01857299916446209,0.5851039886474609,-0.017037000507116318
1714217593614356500,1.0853564453125,-0.2351749986410141,0.5589320063591003,0.002976000076159835
1714217593624004000,1.095004150390625,-0.4382910132408142,0.5206949710845947,0.023516999557614326
1714217593633652000,1.10465185546875,-0.4646100103855133,0.3899250030517578,0.044787000864744186
1714217593643299300,1.11429931640625,-0.40949898958206177,0.3301610052585602,0.10691399872303009
1714217593652947000,1.123947021484375,-0.3274100124835968,0.3001599907875061,0.12738600373268127
1714217593662594800,1.1335947265625,-0.20466700196266174,0.28563299775123596,0.11913599818944931
1714217593672242400,1.143242431640625,-0.0820000022649765,0.32609298825263977,0.02719300054013729
1714217593681889800,1.152889892578125,-0.02739099971950054,0.29784101247787476,-0.05283600091934204
1714217593691537400,1.162537353515625,0.04096899926662445,0.2818079888820648,-0.011521000415086746
1714217593701185300,1.172185302734375,0.041404999792575836,0.22315099835395813,0.042642999440431595
1714217593710833000,1.1818330078125,0.05564599856734276,0.21718299388885498,0.0554409995675087
1714217593720480500,1.19148046875,0.042844001203775406,0.2093140035867691,0.026512999087572098
1714217593730128100,1.201128173828125,0.043894000351428986,0.19931000471115112,0.06524199992418289
1714217593739776000,1.21077587890625,-0.03646500036120415,0.2137400060892105,0.06262300163507462
1714217593749423400,1.22042333984375,-0.19826500117778778,0.2121340036392212,0.01895900070667267
1714217593759071000,1.230071044921875,-0.31911298632621765,0.23717500269412994,0.05692800134420395
1714217593768718800,1.23971875,-0.41274499893188477,0.24909399449825287,0.09531199932098389
1714217593778366500,1.249366455078125,-0.4383560121059418,0.22117899358272552,0.10769400000572205
1714217593788014000,1.25901416015625,-0.4368149936199188,0.18072299659252167,0.05341000109910965
1714217593797661700,1.26866162109375,-0.3536500036716461,0.1276949942111969,0.01361900009214878
1714217593807309600,1.2783095703125,-0.3522239923477173,0.020403999835252762,-0.01329800020903349
1714217593816957200,1.287957275390625,-0.4052349925041199,0.049049001187086105,-0.02682800032198429
1714217593826604500,1.2976044921875,-0.3084059953689575,0.06412799656391144,-0.10769899934530258
1714217593836252400,1.30725244140625,-0.3477430045604706,0.11991100013256073,-0.2701539993286133
1714217593845900000,1.316900146484375,-0.5097039937973022,0.03995700180530548,-0.32353800535202026
1714217593855547600,1.326547607421875,-0.6173760294914246,-0.011043000034987926,-0.2944500148296356
1714217593865195300,1.3361953125,-0.670930027961731,-0.11349300295114517,-0.1964849978685379
1714217593874843000,1.3458427734375,-0.6024050116539001,-0.1165120005607605,-0.0024590000975877047
1714217593884490500,1.355490478515625,-0.4935379922389984,-0.19708199799060822,0.17858800292015076
1714217593894138400,1.365138427734375,-0.4531030058860779,-0.20675399899482727,0.12972399592399597
1714217593903785700,1.37478564453125,-0.3448059856891632,-0.07800000160932541,0.12419500201940536
1714217593913433600,1.38443359375,-0.07322599738836288,0.01152000017464161,0.06628400087356567
1714217593923081200,1.394081298828125,0.07573900371789932,0.019687000662088394,0.04910299926996231
1714217593932728800,1.403728759765625,0.2519510090351105,0.05499500036239624,0.1667270064353943
1714217593942376400,1.41337646484375,0.4418860077857971,0.11658000200986862,0.26899200677871704
1714217593952024000,1.423024169921875,0.5366979837417603,0.13519400358200073,0.31426700949668884
1714217593961671700,1.432671630859375,0.5909940004348755,0.17798900604248047,0.3578239977359772
1714217593971319300,1.4423193359375,0.5502669811248779,0.13622500002384186,0.37272998690605164
1714217593980967000,1.451966796875,0.468997985124588,0.10537000000476837,0.3325600028038025
1714217593990614800,1.46161474609375,0.3198550045490265,0.12715500593185425,0.305990993976593
1714217594000262400,1.471262451171875,0.19797299802303314,0.10801800340414047,0.27998900413513184
1714217594009909800,1.48090966796875,0.130499005317688,0.07602299749851227,0.29573801159858704
1714217594019557600,1.4905576171875,-0.005241000093519688,0.14076100289821625,0.2572239935398102
1714217594029205200,1.500205322265625,-0.11402399837970734,0.20783500373363495,0.1645279973745346
1714217594038852900,1.509852783203125,-0.1823430061340332,0.2645620107650757,0.12678800523281097
1714217594048500500,1.51950048828125,-0.18296100199222565,0.28367799520492554,0.06171400099992752
1714217594058148400,1.5291484375,-0.1567620038986206,0.30615800619125366,-0.07212900370359421
1714217594067796000,1.5387958984375,-0.07648299634456635,0.3454029858112335,-0.0711439996957779
1714217594077443600,1.548443603515625,0.017085999250411987,0.3463920056819916,-0.0036770000588148832
1714217594087091200,1.55809130859375,0.09683699905872345,0.3353230059146881,-0.033337000757455826
1714217594096738800,1.56773876953125,0.14927999675273895,0.40654999017715454,-0.02348499931395054
1714217594106386400,1.577386474609375,0.22899700701236725,0.45047399401664734,0.054274000227451324
1714217594116034000,1.587033935546875,0.22718200087547302,0.5067340135574341,0.09179600328207016
1714217594125681700,1.596681640625,0.1575150042772293,0.6021029949188232,0.10364899784326553
1714217594135329300,1.606329345703125,0.060805998742580414,0.6826779842376709,0.1590059995651245
1714217594144977000,1.615976806640625,0.10038899630308151,0.6676539778709412,0.24389800429344177
1714217594154624500,1.62562451171875,0.09910400211811066,0.6529139876365662,0.2747040092945099
1714217594164272400,1.6352724609375,0.11139699816703796,0.6658480167388916,0.18219299614429474
1714217594173920000,1.644919921875,0.11003900319337845,0.6110730171203613,0.1301400065422058
1714217594183567600,1.654567626953125,0.21765199303627014,0.5428289771080017,0.14650900661945343
1714217594193215000,1.664215087890625,0.40710899233818054,0.43290799856185913,0.1909410059452057
1714217594202862800,1.67386279296875,0.5150949954986572,0.3343299925327301,0.2492009997367859
1714217594212510500,1.683510498046875,0.48715999722480774,0.2737109959125519,0.25196799635887146
1714217594222158000,1.693157958984375,0.40504899621009827,0.25075098872184753,0.2674660086631775
1714217594231805700,1.7028056640625,0.24150800704956055,0.27915599942207336,0.18660299479961395
1714217594241453600,1.71245361328125,0.0645269975066185,0.3462739884853363,0.13145600259304047
1714217594251101000,1.722100830078125,-0.07152699679136276,0.37147098779678345,0.18335099518299103
1714217594260748500,1.73174853515625,-0.16677400469779968,0.314985990524292,0.23289600014686584
1714217594270396400,1.741396484375,-0.22126300632953644,0.2999660074710846,0.29384100437164307
1714217594280044000,1.7510439453125,-0.2213740050792694,0.2857950031757355,0.258215993642807
1714217594289691600,1.760691650390625,-0.20797300338745117,0.2590700089931488,0.23576800525188446
1714217594299339300,1.77033935546875,-0.18101400136947632,0.27392101287841797,0.18627099692821503
1714217594308987000,1.77998681640625,-0.2766149938106537,0.3024829924106598,0.11083299666643143
1714217594318634800,1.789634765625,-0.38584500551223755,0.3859950006008148,0.010235000401735306
1714217594328282000,1.7992822265625,-0.38621801137924194,0.45731601119041443,-0.11552699655294418
1714217594337929700,1.8089296875,-0.4004180133342743,0.6126019954681396,-0.22680099308490753
1714217594347577300,1.818577392578125,-0.37397998571395874,0.6885719895362854,-0.2828730046749115
1714217594357225200,1.82822509765625,-0.25241199135780334,0.8077939748764038,-0.3108989894390106
1714217594366872800,1.837872802734375,-0.1718980073928833,0.929095983505249,-0.31188100576400757
1714217594376520200,1.847520263671875,-0.0778689980506897,1.0244319438934326,-0.32659900188446045
1714217594386168000,1.85716796875,-0.02478400059044361,1.0662939548492432,-0.2872990071773529
1714217594395815400,1.8668154296875,0.08270599693059921,1.0274460315704346,-0.2211569994688034
1714217594405463300,1.87646337890625,0.25828298926353455,0.9480370283126831,-0.15594300627708435
1714217594415111000,1.88611083984375,0.3794510066509247,0.9224439859390259,-0.07820100337266922
1714217594424758500,1.895758544921875,0.5143700242042542,0.8818110227584839,-0.0015310000162571669
1714217594434406400,1.905406494140625,0.663087010383606,0.7847080230712891,0.12834399938583374
1714217594444054000,1.915053955078125,0.743930995464325,0.6985679864883423,0.2026890069246292
1714217594453701400,1.924701416015625,0.7705540060997009,0.6639090180397034,0.16749000549316406
1714217594463349200,1.934349365234375,0.6204339861869812,0.6255469918251038,0.14615799486637115
1714217594472996600,1.94399658203125,0.4978660047054291,0.6110020279884338,0.15378400683403015
1714217594482644500,1.95364453125,0.47091400623321533,0.5662639737129211,0.2454109936952591
1714217594492292000,1.9632919921875,0.4034169912338257,0.5589609742164612,0.43479201197624207
1714217594501939700,1.972939697265625,0.3090580105781555,0.5475550293922424,0.48999398946762085
1714217594511587300,1.98258740234375,0.19071899354457855,0.5513089895248413,0.4988369941711426
1714217594521235000,1.99223486328125,0.19394099712371826,0.08272100239992142,0.006056999787688255
1714217594530882600,2.001882568359375,0.11551100015640259,0.0994350016117096,-0.09689400345087051
1714217594540530200,2.0115302734375,0.09123799949884415,0.2018660008907318,-0.17753000557422638
1714217594550178000,2.021177978515625,0.08132600039243698,0.15796199440956116,-0.2788679897785187
1714217594559825700,2.03082568359375,0.04368999972939491,0.12218300253152847,-0.38274499773979187
1714217594569473000,2.04047314453125,-0.020886000245809555,0.11926700174808502,-0.3922309875488281
1714217594579120600,2.05012060546875,-0.18096700310707092,0.014677000232040882,-0.3294680118560791
1714217594588768500,2.0597685546875,0.012369000352919102,-0.0058189998380839825,-0.2013690024614334
1714217594598416100,2.069416015625,-0.10709500312805176,0.04265100136399269,-0.12978500127792358
1714217594608063500,2.0790634765625,-0.10444500297307968,-0.015877999365329742,-0.1345990002155304
1714217594617711400,2.08871142578125,-0.07461000233888626,-0.07214599847793579,-0.1480560004711151
1714217594627359000,2.09835888671875,-0.08638899773359299,-0.004478999879211187,-0.25380000472068787
1714217594637006600,2.108006591796875,-0.030083000659942627,0.06640200316905975,-0.29349300265312195
1714217594646654200,2.117654296875,-0.09626299887895584,0.05277999863028526,-0.22509999573230743
1714217594656302000,2.127302001953125,-0.2311439961194992,0.04530100151896477,-0.19852299988269806
1714217594665949400,2.136949462890625,-0.2569110095500946,0.022244999185204506,-0.12455900013446808
1714217594675597000,2.14659716796875,-0.25648000836372375,0.03376299887895584,-0.11301200091838837
1714217594685245000,2.156244873046875,-0.147257998585701,0.05757800117135048,-0.22394900023937225
1714217594694892500,2.165892578125,0.06984999775886536,0.021712999790906906,-0.3077540099620819
1714217594704540200,2.1755400390625,0.285724014043808,0.029556000605225563,-0.40595799684524536
1714217594714187800,2.185187744140625,0.4754199981689453,0.03514000028371811,-0.48708000779151917
1714217594723835600,2.194835693359375,0.6638200283050537,0.0032289999071508646,-0.45775100588798523
1714217594733483300,2.204483154296875,0.7050849795341492,-0.12207899987697601,-0.4139629900455475
1714217594743131000,2.214130859375,0.5811480283737183,-0.13080699741840363,-0.34996798634529114
1714217594752778500,2.223778564453125,0.35179001092910767,-0.15722699463367462,-0.2802720069885254
1714217594762426000,2.233426025390625,0.12001899629831314,-0.22560200095176697,-0.22563999891281128
1714217594772073700,2.24307373046875,-0.13622699677944183,-0.2944909930229187,-0.14489099383354187
1714217594781721300,2.252721435546875,-0.17846299707889557,-0.32826000452041626,-0.1515740007162094
1714217594791369200,2.262369140625,-0.02721099928021431,-0.417836993932724,-0.2495809942483902
1714217594801016600,2.2720166015625,0.06451699882745743,-0.39970600605010986,-0.42858800292015076
1714217594810664200,2.281664306640625,0.03861699998378754,-0.3392379879951477,-0.6471250057220459
1714217594820311800,2.291311767578125,-0.030973000451922417,-0.26660698652267456,-0.7863240242004395
1714217594829959700,2.300959716796875,-0.11047899723052979,-0.3067449927330017,-0.7553430199623108
1714217594839607000,2.31060693359375,-0.24692000448703766,-0.2662679851055145,-0.5295820236206055
1714217594849254700,2.320254638671875,-0.4352239966392517,-0.29346999526023865,-0.37771400809288025
1714217594858902500,2.329902587890625,-0.5592089891433716,-0.3814670145511627,-0.26420700550079346
1714217594868550100,2.339550048828125,-0.5989540219306946,-0.524071991443634,-0.13831500709056854
1714217594878197800,2.34919775390625,-0.48055899143218994,-0.4732860028743744,-0.13839499652385712
1714217594887845000,2.35884521484375,-0.23594899475574493,-0.37485599517822266,-0.2271600067615509
1714217594897493000,2.368492919921875,0.004877000115811825,-0.3362779915332794,-0.2698819935321808
1714217594907140600,2.378140625,0.2356480062007904,-0.2908500134944916,-0.30104100704193115
1714217594916788200,2.387788330078125,0.43636900186538696,-0.2693229913711548,-0.27410799264907837
1714217594926436000,2.39743603515625,0.6274920105934143,-0.25796300172805786,-0.27568700909614563
1714217594936083700,2.407083740234375,0.571340024471283,-0.21993300318717957,-0.22580499947071075
1714217594945731300,2.4167314453125,0.3416450023651123,-0.3259600102901459,-0.15122400224208832
1714217594955379000,2.42637890625,0.06776800006628036,-0.3440319895744324,-0.10180599987506866
1714217594965026300,2.4360263671875,-0.1891299933195114,-0.31442099809646606,-0.12994100153446198
1714217594974674000,2.445673828125,-0.354218989610672,-0.35890600085258484,-0.11201000213623047
1714217594984321800,2.45532177734375,-0.42166799306869507,-0.4584130048751831,-0.008217000402510166
1714217594993969400,2.464969482421875,-0.3316049873828888,-0.5228070020675659,0.10056599974632263
1714217595003617000,2.474616943359375,-0.1690160036087036,-0.5996749997138977,0.1339469999074936
1714217595013264600,2.4842646484375,0.028183000162243843,-0.5974429845809937,0.17052100598812103
1714217595022912300,2.493912353515625,0.1905599981546402,-0.6454460024833679,0.21830500662326813
1714217595032559900,2.503559814453125,0.2920910120010376,-0.6666269898414612,0.2382269948720932
1714217595042207500,2.51320751953125,0.359811007976532,-0.664218008518219,0.20518100261688232
1714217595051855000,2.522855224609375,0.3543330132961273,-0.5874710083007812,0.2273229956626892
1714217595061503000,2.5325029296875,0.17796200513839722,-0.510325014591217,0.20890699326992035
1714217595071150300,2.542150390625,-0.042920999228954315,-0.463238000869751,0.12953400611877441
1714217595080798000,2.5517978515625,-0.27322500944137573,-0.41704699397087097,0.018448999151587486
1714217595090445800,2.56144580078125,-0.45136699080467224,-0.3145830035209656,-0.09659799933433533
1714217595100093400,2.571093505859375,-0.5049260258674622,-0.2390740066766739,-0.3108389973640442
1714217595109740800,2.58074072265625,-0.47789499163627625,-0.16929499804973602,-0.5139549970626831
1714217595119388400,2.590388427734375,-0.35509100556373596,-0.11605899780988693,-0.5727909803390503
1714217595129036300,2.600036376953125,-0.1374330073595047,-0.05821799859404564,-0.479993999004364
1714217595138684000,2.609683837890625,0.052974000573158264,-0.06953299790620804,-0.24062399566173553
1714217595148331500,2.61933154296875,0.10663499683141708,-0.04976800084114075,-0.09442300349473953
1714217595157979100,2.628979248046875,0.07921899855136871,-0.034678999334573746,0.005084000062197447
1714217595167626800,2.638626708984375,-0.08360199630260468,0.05664699897170067,0.007521999999880791
1714217595177274400,2.6482744140625,-0.3425860106945038,0.058157000690698624,-0.08534500002861023
1714217595186922000,2.657921875,-0.5472840070724487,-0.06031399965286255,-0.21673299372196198
1714217595196569900,2.66756982421875,-0.6987069845199585,-0.11732400208711624,-0.3093389868736267
1714217595206217500,2.677217529296875,-0.5653480291366577,-0.135686993598938,-0.38851699233055115
1714217595215864800,2.68686474609375,-0.20111499726772308,-0.13775299489498138,-0.3695249855518341
1714217595225512400,2.696512451171875,0.20274700224399567,-0.10148900002241135,-0.2283259928226471
1714217595235160300,2.706160400390625,0.5667889714241028,-0.08719299733638763,-0.0729139968752861
1714217595244808000,2.715807861328125,0.6581609845161438,-0.016791999340057373,0.04842299968004227
1714217595254455600,2.72545556640625,0.5331670045852661,0.06979700177907944,0.11722999811172485
1714217595264103200,2.735103271484375,0.38236600160598755,0.15782399475574493,0.12229900062084198
1714217595273751000,2.7447509765625,0.2312150001525879,0.1949470043182373,0.0785209983587265
1714217595283398700,2.754398681640625,0.054999999701976776,0.2429099977016449,-0.07077399641275406
1714217595293046300,2.76404638671875,0.013073000125586987,0.37307101488113403,-0.14401499927043915
1714217595302694000,2.77369384765625,0.08349200338125229,0.4233820140361786,-0.11570099741220474
1714217595312341500,2.783341552734375,0.01445700041949749,0.49785101413726807,-0.06746900081634521
1714217595321988900,2.79298876953125,-0.023375000804662704,0.4741150140762329,-0.017531000077724457
1714217595331636500,2.802636474609375,-0.14656800031661987,0.4919019937515259,0.005979999899864197
1714217595341284400,2.812284423828125,-0.2255689948797226,0.38967201113700867,-0.03473300114274025
1714217595350932000,2.821931884765625,-0.13120099902153015,0.3422969877719879,-0.05012200027704239
1714217595360579600,2.83157958984375,-0.020920999348163605,0.3320240080356598,0.0009790000040084124
1714217595370227200,2.841227294921875,0.03203599900007248,0.3157379925251007,-0.05752599984407425
1714217595379874800,2.850874755859375,0.07358500361442566,0.28390198945999146,-0.12069500237703323
1714217595389522400,2.8605224609375,0.153780996799469,0.21362000703811646,-0.13477399945259094
1714217595399170000,2.870170166015625,0.1261810064315796,0.14880099892616272,-0.06204799935221672
1714217595408817700,2.879817626953125,0.0568230003118515,0.11788299679756165,-0.05894799903035164
1714217595418465500,2.889465576171875,0.12486699968576431,0.1467670053243637,-0.07685200124979019
1714217595428113000,2.89911279296875,0.1646219938993454,0.1695760041475296,-0.11266300082206726
1714217595437760800,2.9087607421875,0.15090599656105042,0.13157199323177338,-0.16600200533866882
1714217595447408400,2.918408447265625,0.2178799957036972,0.20916099846363068,-0.2155739963054657
1714217595457055700,2.9280556640625,0.25977200269699097,0.24586200714111328,-0.3010280132293701
1714217595466703600,2.93770361328125,0.2725830078125,0.334987998008728,-0.3220449984073639
1714217595476351200,2.947351318359375,0.28816699981689453,0.32373300194740295,-0.25966399908065796
1714217595485998800,2.956998779296875,0.16533899307250977,0.35438400506973267,-0.2656329870223999
1714217595495646500,2.966646484375,0.05942099913954735,0.349388986825943,-0.256089985370636
1714217595505294000,2.976294189453125,0.018487000837922096,0.35137200355529785,-0.24956899881362915
1714217595514941700,2.985941650390625,0.06254100054502487,0.3988740146160126,-0.20624400675296783
1714217595524589600,2.995589599609375,0.1302569955587387,0.4157570004463196,-0.16386500000953674
1714217595534237200,3.0052373046875,0.11957000195980072,0.39663198590278625,-0.20620499551296234
1714217595543884800,3.014884765625,0.18726299703121185,0.4132539927959442,-0.20635199546813965
1714217595553532400,3.024532470703125,0.24476300179958344,0.39410400390625,-0.22041800618171692
1714217595563179800,3.0341796875,0.17677299678325653,0.43461498618125916,-0.20488999783992767
1714217595572827600,3.04382763671875,0.07137899845838547,0.3829280138015747,-0.07615900039672852
1714217595582475300,3.053475341796875,0.031067999079823494,0.2979719936847687,0.07659699767827988
1714217595592123000,3.063122802734375,0.060766998678445816,0.27936598658561707,0.09955000132322311
1714217595601770500,3.0727705078125,0.12918700277805328,0.2774200141429901,0.0872030034661293
1714217595611418000,3.082418212890625,0.18558800220489502,0.24969300627708435,0.043914999812841415
1714217595621065700,3.092065673828125,0.21308399736881256,0.24802100658416748,-0.023713000118732452
1714217595630713300,3.10171337890625,0.17509500682353973,0.28360000252723694,-0.046525001525878906
1714217595640361200,3.111361328125,0.0942780002951622,0.27804699540138245,-0.043675001710653305
1714217595650008600,3.121008544921875,-0.03840000182390213,0.2814509868621826,0.025212999433279037
1714217595659656200,3.13065625,-0.0919250026345253,0.26173698902130127,0.09481000155210495
1714217595669303800,3.1403037109375,-0.08918700367212296,0.24184100329875946,0.10152500122785568
1714217595678951700,3.14995166015625,-0.020695000886917114,0.2524369955062866,0.09958899766206741
1714217595688599300,3.159599365234375,0.09094899892807007,0.3011789917945862,0.09185799956321716
1714217595698246700,3.16924658203125,0.11849100142717361,0.3534129858016968,0.07693099975585938
1714217595707894500,3.17889453125,0.026722999289631844,0.3569340109825134,0.04690700024366379
1714217595717542100,3.188542236328125,-0.16359199583530426,0.2869119942188263,0.008155999705195427
1714217595727189800,3.198189697265625,-0.32476499676704407,0.19180099666118622,-0.013929000124335289
1714217595736837400,3.20783740234375,-0.3120349943637848,0.17098499834537506,-0.07851900160312653
1714217595746485000,3.217485107421875,0.0012069999938830733,0.18657800555229187,-0.0839029997587204
1714217595756132600,3.227132568359375,0.420756995677948,0.23143400251865387,-0.02768700011074543
1714217595765780200,3.2367802734375,0.7595630288124084,0.2689180076122284,0.036896001547575
1714217595775427800,3.246427734375,0.9614539742469788,0.2713389992713928,0.11964599788188934
1714217595785075700,3.25607568359375,1.0554829835891724,0.25096699595451355,0.13897299766540527
1714217595794723000,3.26572314453125,1.0000959634780884,0.2712459862232208,0.12824900448322296
1714217595804371000,3.275370849609375,0.9191100001335144,0.2786799967288971,0.13607899844646454
1714217595814018300,3.285018310546875,0.7289519906044006,0.2623560130596161,0.05781399831175804
1714217595823666200,3.294666259765625,0.4587559998035431,0.22135500609874725,-0.020459000021219254
1714217595833313500,3.3043134765625,0.24167199432849884,0.21628600358963013,-0.08667899668216705
1714217595842961200,3.313961181640625,0.1216999962925911,0.20163500308990479,-0.1447799950838089
1714217595852609000,3.323609130859375,0.12216100096702576,0.14449700713157654,-0.2387399971485138
1714217595862256600,3.333256591796875,0.11004099994897842,0.09778299927711487,-0.2362779974937439
1714217595871904300,3.342904296875,0.08306299895048141,0.028508000075817108,-0.234157994389534
1714217595881552000,3.3525517578125,0.02871200069785118,-0.03791699931025505,-0.14219500124454498
1714217595891199500,3.362199462890625,0.028992999345064163,-0.12093199789524078,-0.031185999512672424
1714217595900847000,3.37184716796875,0.05483800172805786,-0.13991600275039673,0.04765100032091141
1714217595910494700,3.38149462890625,0.04131700098514557,-0.14084699749946594,0.0737370029091835
1714217595920142300,3.391142333984375,-0.014220000244677067,-0.1348849982023239,0.029424000531435013
1714217595929790000,3.4007900390625,-0.05468299984931946,-0.09699200093746185,0.0005830000154674053
1714217595939437800,3.410437744140625,-0.08191700279712677,-0.09606000036001205,-0.06359200179576874
1714217595949085200,3.420085205078125,-0.02679000049829483,-0.03218900039792061,0.017847999930381775
1714217595958732800,3.42973291015625,-0.09475799649953842,-0.035624001175165176,0.12988099455833435
1714217595968380700,3.439380615234375,-0.18954500555992126,-0.03979099914431572,0.12734200060367584
1714217595978028300,3.4490283203125,-0.1614920049905777,0.02137400023639202,0.10631699860095978
1714217595987676000,3.458676025390625,-0.05199800059199333,0.018014999106526375,0.10644800215959549
1714217595997323300,3.4683232421875,0.01673099957406521,0.03986399993300438,0.11393199861049652
1714217596006971100,3.47797119140625,-0.00989800039678812,0.02281299978494644,0.14309099316596985
1714217596016618800,3.48761865234375,0.01758600026369095,-0.007193000055849552,0.13767600059509277
1714217596026266400,3.497266357421875,0.031846001744270325,-0.0648839995265007,0.10050799697637558
1714217596035914000,3.5069140625,-0.023571999743580818,-0.14014600217342377,0.034756001085042953
1714217596045561600,3.5165615234375,0.07204200327396393,-0.20892199873924255,-0.01512799970805645
1714217596055209200,3.526209228515625,0.23294399678707123,-0.24581600725650787,-0.03632400184869766
1714217596064856800,3.53585693359375,0.38277700543403625,-0.2996799945831299,-0.04711800068616867
1714217596074504700,3.545504638671875,0.4890269935131073,-0.26725900173187256,-0.08255600184202194
1714217596084152300,3.55515234375,0.5031790137290955,-0.31164300441741943,-0.12370699644088745
1714217596093800000,3.564800048828125,0.5142300128936768,-0.3350850045681,-0.09368500113487244
1714217596103447600,3.574447509765625,0.46124398708343506,-0.33183300495147705,-0.06889499723911285
1714217596113095200,3.58409521484375,0.2835269868373871,-0.28662699460983276,-0.06852400302886963
1714217596122742800,3.59374267578125,0.06827100366353989,-0.22302399575710297,-0.08547300100326538
1714217596132390400,3.603390380859375,-0.14816899597644806,-0.2055640071630478,-0.018400000408291817
1714217596142037800,3.613037841796875,-0.2537449896335602,-0.1864060014486313,0.07613799721002579
1714217596151685600,3.622685546875,-0.2921839952468872,-0.14810800552368164,0.08552800118923187
1714217596161333200,3.632333251953125,-0.32943201065063477,-0.14288899302482605,0.15519000589847565
1714217596170980900,3.64198095703125,-0.4503600001335144,-0.19663600623607635,0.21100600063800812
1714217596180628500,3.65162841796875,-0.4337350130081177,-0.24221199750900269,0.21041999757289886
1714217596190276000,3.661276123046875,-0.47436800599098206,-0.25966399908065796,0.17159299552440643
1714217596199923700,3.670923828125,-0.5133609771728516,-0.3669489920139313,0.07259400188922882
1714217596209571300,3.6805712890625,-0.6786289811134338,-0.3971090018749237,-0.023801999166607857
1714217596219219000,3.690218994140625,-0.691798985004425,-0.4552220106124878,-0.1100820004940033
1714217596228866800,3.69986669921875,-0.5599409937858582,-0.4964450001716614,-0.0662510022521019
1714217596238514200,3.70951416015625,-0.42442598938941956,-0.5743229985237122,0.013740000315010548
1714217596248161800,3.719161865234375,-0.26726698875427246,-0.5629580020904541,0.012249999679625034
1714217596257809400,3.728809326171875,-0.07772299647331238,-0.5966950058937073,0.08015000075101852
1714217596267457300,3.738457275390625,0.06508799642324448,-0.581475019454956,0.17798300087451935
1714217596277105000,3.74810498046875,0.07788100093603134,-0.5758339762687683,0.28820499777793884
1714217596286752500,3.75775244140625,0.08533299714326859,-0.5391240119934082,0.3509419858455658
1714217596296400100,3.767400146484375,0.15321899950504303,-0.5230579972267151,0.4239020049571991
1714217596306047500,3.777047607421875,0.2299090027809143,-0.4528850018978119,0.4687440097332001
1714217596315695400,3.7866953125,0.2710990011692047,-0.413112998008728,0.4609299898147583
1714217596325343000,3.796343017578125,0.2811959981918335,-0.3660610020160675,0.46533501148223877
1714217596334990300,3.805990234375,0.2276570051908493,-0.34466999769210815,0.4825260043144226
1714217596344638200,3.81563818359375,0.11624199897050858,-0.30587100982666016,0.5201280117034912
1714217596354285800,3.825285888671875,0.04930499941110611,-0.2867070138454437,0.5610229969024658
1714217596363933400,3.834933349609375,-0.10181400179862976,-0.228083997964859,0.4891439974308014
1714217596373581000,3.8445810546875,-0.30503299832344055,-0.12680299580097198,0.3790090084075928
1714217596383229000,3.85422900390625,-0.3316569924354553,-0.05134899914264679,0.2553659975528717
1714217596392876300,3.863876220703125,-0.38568100333213806,0.013755000196397305,0.21553300321102142
1714217596402524000,3.87352392578125,-0.31719499826431274,0.0232510007917881,0.20394399762153625
1714217596412171800,3.883171875,-0.22241799533367157,0.01344900019466877,0.2580319941043854
1714217596421819400,3.8928193359375,-0.10107800364494324,0.00571900000795722,0.31712600588798523
1714217596431466800,3.902466796875,-0.007141000125557184,0.05574600026011467,0.2984769940376282
1714217596441114400,3.9121142578125,0.019574999809265137,0.12564699351787567,0.21201999485492706
1714217596450762000,3.921761962890625,-0.10443899780511856,0.16230399906635284,0.12436400353908539
1714217596460409600,3.93140966796875,-0.21348200738430023,0.1349010020494461,0.06145400181412697
1714217596470057200,3.94105712890625,-0.3106290102005005,0.14716699719429016,0.02958800084888935
1714217596479704800,3.950704833984375,-0.28402599692344666,0.15105000138282776,0.04895099997520447
1714217596489352400,3.9603525390625,-0.12337400019168854,0.17052200436592102,0.057165998965501785
1714217596499000300,3.970000244140625,0.09292100369930267,0.19546100497245789,-0.0030950000509619713
1714217596508648000,3.97964794921875,0.239547997713089,0.272816002368927,0.017480000853538513
1714217596518295600,3.989295654296875,0.3059700131416321,0.21644100546836853,0.06068500131368637
1714217596527943200,3.998943115234375,0.39860799908638,0.23627899587154388,0.18949200212955475
1714217596537590800,4.0085908203125,0.4111180007457733,0.2164209932088852,0.2612980008125305
1714217596547238400,4.01823828125,0.34128499031066895,0.243026003241539,0.2815519869327545
1714217596556886000,4.027885986328125,0.21923699975013733,0.25217100977897644,0.2097959965467453
1714217596566533400,4.037533447265625,0.08231399953365326,0.33936500549316406,0.12572599947452545
1714217596576181200,4.04718115234375,-0.051624998450279236,0.32210400700569153,0.05538500100374222
1714217596585828900,4.056828857421875,-0.14723999798297882,0.2833240032196045,-0.02412400022149086
1714217596595476500,4.0664765625,-0.18605899810791016,0.28165900707244873,-0.0587100014090538
1714217596605124000,4.0761240234375,-0.05058300122618675,0.21905900537967682,-0.07013499736785889
1714217596614771700,4.085771728515625,0.09938699752092361,0.16358700394630432,-0.06469999998807907
1714217596624419300,4.09541943359375,0.16636699438095093,0.1584399938583374,-0.10505799949169159
1714217596634067000,4.10506689453125,0.27538400888442993,0.18552200496196747,-0.1366560012102127
1714217596643714800,4.11471484375,0.3560290038585663,0.18011699616909027,-0.14894700050354004
1714217596653362400,4.124362548828125,0.3833340108394623,0.1800059974193573,-0.15232700109481812
1714217596663009800,4.134009765625,0.4914650022983551,0.2272540032863617,-0.17868100106716156
1714217596672657700,4.14365771484375,0.6010280251502991,0.2365580052137375,-0.11799100041389465
1714217596682305300,4.15330517578125,0.6688269972801208,0.27963000535964966,-0.13388699293136597
1714217596691953000,4.162952880859375,0.6296060085296631,0.28091099858283997,-0.13114599883556366
1714217596701600500,4.1726005859375,0.5075349807739258,0.3176240026950836,-0.12383099645376205
1714217596711248000,4.182247802734375,0.3472769856452942,0.33464300632476807,-0.09793300181627274
1714217596720895500,4.1918955078125,0.07604199647903442,0.2712840139865875,-0.11793100088834763
1714217596730543400,4.20154345703125,-0.13863100111484528,0.22078000009059906,-0.22953200340270996
1714217596740191000,4.21119091796875,-0.2465829998254776,0.1998469978570938,-0.27123498916625977
1714217596749838600,4.220838623046875,-0.28482601046562195,0.16852599382400513,-0.2919110059738159
1714217596759486500,4.230486572265625,-0.22994300723075867,0.1250240057706833,-0.31575098633766174
1714217596769133800,4.2401337890625,-0.10636799782514572,0.0784590020775795,-0.2548460066318512
1714217596778781400,4.249781494140625,0.029826000332832336,0.051621999591588974,-0.2365799993276596
1714217596788428800,4.2594287109375,0.13947799801826477,0.07545199990272522,-0.2189140021800995
1714217596798076700,4.26907666015625,0.2624509930610657,0.10046999901533127,-0.131522998213768
1714217596807724300,4.278724365234375,0.3051210045814514,0.1432490050792694,-0.06730999797582626
1714217596817372000,4.288371826171875,0.2658419907093048,0.17387300729751587,-0.0601079985499382
1714217596827019500,4.29801953125,0.14731399714946747,0.2287050038576126,-0.011243999935686588
1714217596836667400,4.30766748046875,-0.027060000225901604,0.1704619973897934,0.06340999901294708
1714217596846314800,4.317314697265625,-0.2404939979314804,0.15416499972343445,0.08882699906826019
1714217596855962400,4.32696240234375,-0.41495999693870544,0.08286499977111816,0.15780499577522278
1714217596865610000,4.33660986328125,-0.5073130130767822,0.035082001239061356,0.18548999726772308
1714217596875257900,4.3462578125,-0.4785729944705963,0.011680000461637974,0.16927100718021393
1714217596884905500,4.355905517578125,-0.4089980125427246,0.014402000233530998,0.24625399708747864
1714217596894552800,4.365552734375,-0.3131900131702423,0.011319000273942947,0.31235700845718384
1714217596904200400,4.375200439453125,-0.19044700264930725,0.008674999698996544,0.34394100308418274
1714217596913848300,4.384848388671875,-0.04089999943971634,0.07847800105810165,0.46605101227760315
1714217596923496000,4.394495849609375,0.12322500348091125,0.15426699817180634,0.503013014793396
1714217596933143300,4.404143310546875,0.21821899712085724,0.2517639994621277,0.46157699823379517
1714217596942791200,4.413791259765625,0.22118599712848663,0.3689590096473694,0.24333900213241577
1714217596952438800,4.423438720703125,0.2211419939994812,0.4373280107975006,0.05236700177192688
1714217596962086400,4.43308642578125,0.3204450011253357,0.48117101192474365,-0.01428299956023693
1714217596971734000,4.442734130859375,0.4702189862728119,0.5359629988670349,-0.2183690071105957
1714217596981381600,4.452381591796875,0.5563259720802307,0.5375459790229797,-0.333869993686676
1714217596991029500,4.462029541015625,0.4886719882488251,0.4940490126609802,-0.41475799679756165
1714217597000676900,4.4716767578125,0.37065500020980835,0.4414759874343872,-0.5195590257644653
1714217597010324500,4.481324462890625,0.208064004778862,0.3274939954280853,-0.6285830140113831
1714217597019972000,4.49097216796875,0.10227499902248383,0.21637800335884094,-0.619350016117096
1714217597029619700,4.50061962890625,-0.019600000232458115,0.1712390035390854,-0.5806000232696533
1714217597039267300,4.510267333984375,-0.09941499680280685,0.08063499629497528,-0.4345870018005371
1714217597048915000,4.5199150390625,0.023585999384522438,-0.017232000827789307,-0.24507099390029907
1714217597058562600,4.5295625,0.2544569969177246,-0.06717800348997116,-0.11595900356769562
1714217597068210200,4.539210205078125,0.17360299825668335,-0.15365900099277496,-0.04548199847340584
1714217597077857800,4.54885791015625,0.14599500596523285,-0.13769499957561493,0.02483000047504902
1714217597087505400,4.55850537109375,-0.0020840000361204147,-0.2017419934272766,0.11080300062894821
1714217597097153000,4.568153076171875,-0.1932159960269928,-0.2275480031967163,0.20887400209903717
1714217597106801000,4.57780078125,-0.3550240099430084,-0.2232629954814911,0.38607800006866455
1714217597116448300,4.5874482421875,-0.41023799777030945,-0.20851300656795502,0.488103985786438
1714217597126096100,4.59709619140625,-0.518517017364502,-0.13096700608730316,0.4572559893131256
1714217597135743700,4.60674365234375,-0.6000369787216187,-0.09280899912118912,0.32611098885536194
1714217597145391400,4.616391357421875,-0.6004599928855896,-0.0903559997677803,0.25880399346351624
1714217597155038700,4.626038818359375,-0.45309001207351685,-0.15923799574375153,0.36143600940704346
1714217597164686600,4.6356865234375,-0.12816999852657318,-0.16122399270534515,0.5439990162849426
1714217597174334200,4.645334228515625,0.08501099795103073,-0.18946899473667145,0.5562819838523865
1714217597183981800,4.65498193359375,0.3414529860019684,-0.16176100075244904,0.6034129858016968
1714217597193629400,4.66462939453125,0.433230996131897,-0.07326799631118774,0.4990119934082031
1714217597203277000,4.674277099609375,0.4451259970664978,0.00545400008559227,0.32904499769210815
1714217597212924700,4.683924560546875,0.41655799746513367,0.0818139985203743,0.06252899765968323
1714217597222572300,4.693572265625,0.4151169955730438,0.1318099945783615,-0.07877600193023682
1714217597232220000,4.703219970703125,0.45499300956726074,0.11160500347614288,-0.1817300021648407
1714217597241867500,4.712867431640625,0.5897809863090515,0.07993800193071365,-0.24177700281143188
1714217597251515400,4.722515380859375,0.7246059775352478,0.08972900360822678,-0.2236669957637787
1714217597261162800,4.732162841796875,0.7782359719276428,0.054370999336242676,-0.20729400217533112
1714217597270810400,4.741810302734375,0.7369970083236694,0.09807199984788895,-0.11949700117111206
1714217597280457700,4.751457763671875,0.5193650126457214,0.15060800313949585,-0.0936800017952919
1714217597290105600,4.761105712890625,0.20789200067520142,0.12653599679470062,-0.15320700407028198
1714217597299753200,4.770753173828125,0.018055999651551247,0.10784400254487991,-0.21917499601840973
1714217597309400800,4.78040087890625,-0.00749799981713295,0.08563899993896484,-0.2405090034008026
1714217597319048400,4.79004833984375,0.006430999841541052,0.12519800662994385,-0.28901898860931396
1714217597328696000,4.799696044921875,0.11618900299072266,0.08180700242519379,-0.25377601385116577
1714217597338343700,4.80934375,0.22496899962425232,0.08370999991893768,-0.20628699660301208
1714217597347991300,4.8189912109375,0.45708200335502625,0.1099570021033287,-0.22742299735546112
1714217597357639000,4.828638916015625,0.6073920130729675,0.10788899660110474,-0.2478799968957901
1714217597367286500,4.83828662109375,0.5001450181007385,0.11326099932193756,-0.19120800495147705
1714217597376934100,4.84793408203125,0.2295220047235489,0.08946199715137482,-0.20039799809455872
1714217597386581800,4.857581787109375,0.12282899767160416,0.023367999121546745,-0.15950800478458405
1714217597396229400,4.8672294921875,0.11131999641656876,-0.043125998228788376,-0.10111100226640701
1714217597405877000,4.876876953125,0.058173999190330505,-0.0770760029554367,-0.09331099689006805
1714217597415524600,4.886524658203125,-0.021400000900030136,-0.1031389981508255,-0.20078200101852417
1714217597425172200,4.896172119140625,-0.02046399936079979,-0.1476770043373108,-0.14868199825286865
1714217597434819800,4.90581982421875,0.009065999649465084,-0.11992999911308289,-0.010843999683856964
1714217597444467500,4.915467529296875,0.024685999378561974,-0.050207000225782394,0.027654999867081642
1714217597454115000,4.925114990234375,0.00033400001120753586,-0.01270699966698885,0.038933999836444855
1714217597463763000,4.934762939453125,-0.07775799930095673,0.04627399891614914,0.13427400588989258
1714217597473410300,4.944410400390625,-0.1969670057296753,0.012613999657332897,0.11303099989891052
1714217597483058200,4.95405810546875,-0.41130000352859497,-0.050345998257398605,0.11075499653816223
1714217597492705800,4.963705810546875,-0.5985789895057678,-0.12497899681329727,0.1671070009469986
1714217597502353400,4.973353515625,-0.6921499967575073,-0.20586100220680237,0.19433100521564484
1714217597512001000,4.9830009765625,-0.7985270023345947,-0.33066800236701965,0.12101499736309052
1714217597521648600,4.992648681640625,-0.8815370202064514,-0.4338720142841339,-0.08190499991178513
1714217597531296300,5.002296142578125,-0.7711790204048157,-0.4839180111885071,-0.1564600020647049
1714217597540943600,5.011943603515625,-0.6642770171165466,-0.39202800393104553,-0.12704500555992126
1714217597550591500,5.021591552734375,-0.7452080249786377,-0.3159390091896057,-0.1748719960451126
1714217597560239000,5.031239013671875,-1.0175429582595825,-0.26136499643325806,-0.34441399574279785
1714217597569886700,5.04088671875,-1.2085679769515991,-0.23317000269889832,-0.49447599053382874
1714217597579534000,5.0505341796875,-1.1845619678497314,-0.377238005399704,-0.4925389885902405
1714217597589181700,5.060181640625,-0.6419079899787903,-0.1608249992132187,-0.8011050224304199
1714217597598829300,5.069829345703125,-0.33336499333381653,-0.29293400049209595,-0.7315490245819092
1714217597608477200,5.079477294921875,-0.06470700353384018,-0.4754270017147064,-0.3836140036582947
1714217597618124500,5.08912451171875,0.1969980001449585,-0.562861979007721,-0.1438709944486618
1714217597627772400,5.0987724609375,0.30108800530433655,-0.6434069871902466,0.05778700113296509
1714217597637420000,5.108419921875,0.3849790096282959,-0.6159240007400513,0.08810099959373474
1714217597647067600,5.118067626953125,0.5165290236473083,-0.6008689999580383,-0.011633000336587429
1714217597656715300,5.12771533203125,0.6437649726867676,-0.47446098923683167,-0.09103400260210037
1714217597666362600,5.137362548828125,0.7492820024490356,-0.4925140142440796,-0.09192900359630585
1714217597676010500,5.147010498046875,0.8100050091743469,-0.45583000779151917,-0.010755999945104122
1714217597685658000,5.156658203125,0.6855149865150452,-0.33357200026512146,0.0026289999950677156
1714217597695305700,5.1663056640625,0.43726998567581177,-0.2026890069246292,-0.023742999881505966
1714217597704953300,5.175953369140625,0.1506810039281845,-0.13048000633716583,-0.09118399769067764
1714217597714601200,5.185601318359375,-0.19066700339317322,-0.10933899879455566,-0.10836300253868103
1714217597724248800,5.195248779296875,-0.3137350082397461,-0.15951000154018402,-0.13028499484062195
1714217597733896200,5.204896240234375,-0.3158920109272003,-0.2092590034008026,-0.1412539929151535
1714217597743543800,5.214543701171875,-0.24911999702453613,-0.19824999570846558,-0.17510700225830078
1714217597753191700,5.224191650390625,-0.11558999866247177,-0.17566899955272675,-0.11984000355005264
1714217597762839000,5.233839111328125,-0.07635299861431122,-0.18950800597667694,-0.08681699633598328
1714217597772486700,5.243486572265625,-0.18814200162887573,-0.1544010043144226,0.062118999660015106
1714217597782134500,5.253134521484375,-0.39429399371147156,-0.1533530056476593,0.24075600504875183
1714217597791782000,5.262781982421875,-0.6296759843826294,-0.22130100429058075,0.23962600529193878
1714217597801429500,5.272429443359375,-0.6735429763793945,-0.25132501125335693,0.2675980031490326
1714217597811077000,5.2820771484375,-0.379254013299942,-0.2224860042333603,0.21616800129413605
1714217597820724700,5.291724853515625,-0.029194999486207962,-0.14565099775791168,0.09808100014925003
1714217597830372600,5.30137255859375,0.32002100348472595,-0.10081599652767181,0.03431899845600128
1714217597840020000,5.31102001953125,0.5206819772720337,-0.03813299909234047,-0.054010000079870224
1714217597849667600,5.32066748046875,0.6537780165672302,0.03618299961090088,-0.13479399681091309
1714217597859315000,5.33031494140625,0.6920239925384521,0.17270399630069733,-0.1966799944639206
1714217597868963000,5.339963134765625,0.6506999731063843,0.2911210060119629,-0.23431700468063354
1714217597878610400,5.3496103515625,0.553521990776062,0.3924790024757385,-0.27240198850631714
1714217597888258000,5.359258056640625,0.48663198947906494,0.4533349871635437,-0.2691659927368164
1714217597897905700,5.36890576171875,0.48524799942970276,0.49555400013923645,-0.21267899870872498
1714217597907553300,5.37855322265625,0.5817750096321106,0.48486998677253723,-0.09880299866199493
1714217597917201000,5.388200927734375,0.6078640222549438,0.45570600032806396,-0.004253999795764685
1714217597926848500,5.3978486328125,0.7175340056419373,0.4182170033454895,0.08216899633407593
1714217597936496000,5.40749609375,0.6896139979362488,0.42381399869918823,0.10482099652290344
1714217597946144000,5.41714404296875,0.48725199699401855,0.4686869978904724,0.06690800189971924
1714217597955791400,5.426791259765625,0.16040199995040894,0.4256489872932434,0.019933000206947327
1714217597965439000,5.43643896484375,-0.09568700194358826,0.3974060118198395,0.001563000027090311
1714217597975086600,5.446086669921875,-0.21810999512672424,0.39505499601364136,0.012350999750196934
1714217597984734500,5.455734375,-0.18842099606990814,0.3707039952278137,0.0372450016438961
1714217597994382000,5.465382080078125,-0.052274998277425766,0.3719559907913208,-0.014574999921023846
1714217598004029700,5.47502978515625,0.08634000271558762,0.3790709972381592,-0.08607099950313568
1714217598013677000,5.484677001953125,0.24982400238513947,0.3122999966144562,-0.12069600075483322
1714217598023324700,5.49432470703125,0.3062739968299866,0.28400999307632446,-0.12117499858140945
1714217598032972300,5.50397216796875,0.22506900131702423,0.26735401153564453,-0.12871700525283813
1714217598042620200,5.5136201171875,0.18697300553321838,0.28714799880981445,-0.15520000457763672
1714217598052267800,5.523267822265625,0.14696599543094635,0.2805880010128021,-0.16495099663734436
1714217598061915100,5.5329150390625,0.13584600389003754,0.22098800539970398,-0.16675299406051636
1714217598071562800,5.542562744140625,0.2046470046043396,0.17390799522399902,-0.1396609991788864
1714217598081210400,5.55221044921875,0.27433401346206665,0.16074900329113007,-0.09645000100135803
1714217598090858000,5.56185791015625,0.3430649936199188,0.14068399369716644,-0.04528599977493286
1714217598100505900,5.571505859375,0.304082989692688,0.1785620003938675,-0.03325499966740608
1714217598110153500,5.581153564453125,0.2235659956932068,0.1953050047159195,-0.04782800003886223
1714217598119800800,5.59080078125,0.1581680029630661,0.19938799738883972,0.03189399838447571
1714217598129448700,5.60044873046875,0.1189659982919693,0.17243899405002594,0.08748500049114227
1714217598139096300,5.610096435546875,0.04017600044608116,0.18877099454402924,0.05736200138926506
1714217598148744000,5.619743896484375,0.0009369999752379954,0.2439039945602417,0.05720100179314613
1714217598158391300,5.629391357421875,0.08573800325393677,0.24474599957466125,0.1166519969701767
1714217598168039000,5.639038818359375,0.1689939945936203,0.2323099970817566,0.11429999768733978
1714217598177686800,5.648686767578125,0.13172699511051178,0.2845599949359894,0.09172700345516205
1714217598187334100,5.658334228515625,-0.0026710000820457935,0.28379398584365845,0.11500900238752365
1714217598196982000,5.66798193359375,-0.05250899866223335,0.3431220054626465,0.07873299717903137
1714217598206629600,5.677629638671875,-0.1868409961462021,0.3559339940547943,0.1150050014257431
1714217598216277200,5.68727734375,-0.33220601081848145,0.2949639856815338,0.10392999649047852
1714217598225924900,5.6969248046875,-0.3582339882850647,0.25838300585746765,0.0856110006570816
1714217598235572500,5.706572509765625,-0.3964900076389313,0.1841219961643219,0.08937700092792511
1714217598245220000,5.71622021484375,-0.4101699888706207,0.047426000237464905,0.08455800265073776
1714217598254867700,5.72586767578125,-0.4110470116138458,-0.05597800016403198,-0.013175999745726585
1714217598264515300,5.735515380859375,-0.3444820046424866,-0.0868149995803833,-0.20672300457954407
1714217598274163000,5.745162841796875,-0.08750800043344498,-0.05645899847149849,-0.32112300395965576
1714217598283810800,5.754810791015625,0.2917500138282776,0.0137339998036623,-0.4255569875240326
1714217598293458200,5.764458251953125,0.5083100199699402,0.04382399842143059,-0.44899699091911316
1714217598303105800,5.774105712890625,0.6292219758033752,0.09768900275230408,-0.3902119994163513
1714217598312753400,5.78375341796875,0.5742070078849792,0.14530199766159058,-0.22836700081825256
1714217598322401000,5.793401123046875,0.31402599811553955,0.1005370020866394,-0.17561200261116028
1714217598332048600,5.803048583984375,0.27203500270843506,0.055684998631477356,-0.129381000995636
1714217598341696300,5.8126962890625,0.21573999524116516,-0.06768099963665009,-0.009069999679923058
1714217598351343600,5.822343505859375,0.25291499495506287,-0.13627299666404724,0.0008650000090710819
1714217598360991500,5.831991455078125,0.4410560131072998,-0.22629399597644806,-0.12365499883890152
1714217598370639000,5.84163916015625,0.6409140229225159,-0.2291650027036667,-0.2206840068101883
1714217598380286700,5.85128662109375,0.910880982875824,-0.3185499906539917,-0.20696599781513214
1714217598389934300,5.860934326171875,1.0420440435409546,-0.34303900599479675,-0.19959400594234467
1714217598399581700,5.870581787109375,1.0947389602661133,-0.4377889931201935,-0.2161249965429306
1714217598409229600,5.8802294921875,1.0903929471969604,-0.39893200993537903,-0.17100200057029724
1714217598418877200,5.889877197265625,1.0624560117721558,-0.3663179874420166,-0.02366200089454651
1714217598428524800,5.89952490234375,0.9371259808540344,-0.3164049983024597,0.03849500045180321
1714217598438172200,5.909172119140625,0.7879260182380676,-0.2675909996032715,-0.029749000445008278
1714217598447820000,5.918820068359375,0.6788259744644165,-0.15673500299453735,-0.014034999534487724
1714217598457467600,5.928467529296875,0.5853639841079712,-0.1311129927635193,0.004544000141322613
1714217598467115300,5.938115234375,0.43624499440193176,-0.164450004696846,0.05943400040268898
1714217598476762600,5.9477626953125,0.2889559864997864,-0.1989929974079132,0.1314930021762848
1714217598486410500,5.957410400390625,0.20766699314117432,-0.23306599259376526,0.18942399322986603
1714217598496058000,5.96705810546875,0.12873199582099915,-0.243134006857872,0.24400100111961365
1714217598505705700,5.976705810546875,0.020659999921917915,-0.21456000208854675,0.2543160021305084
1714217598515353000,5.98635302734375,-0.08506300300359726,-0.1870270073413849,0.22603200376033783
1714217598525001000,5.9960009765625,-0.17805500328540802,-0.1402589976787567,0.16255900263786316
1714217598534648600,6.005648681640625,-0.3513520061969757,-0.15589900314807892,0.12369599938392639
1714217598544296200,6.015296142578125,-0.4850650131702423,-0.19032199680805206,0.15838000178337097
1714217598553943800,6.02494384765625,-0.5902529954910278,-0.25895699858665466,0.18925200402736664
1714217598563591400,6.03459130859375,-0.6299399733543396,-0.3103959858417511,0.18165700137615204
1714217598573239000,6.044239013671875,-0.6403669714927673,-0.33344900608062744,0.1974799931049347
1714217598582886700,6.05388671875,-0.6674500107765198,-0.3505780100822449,0.20071999728679657
1714217598592534300,6.0635341796875,-0.6377459764480591,-0.35456299781799316,0.2018209993839264
1714217598602182000,6.073181884765625,-0.5968539714813232,-0.2885749936103821,0.16585899889469147
1714217598611829500,6.08282958984375,-0.5677739977836609,-0.2878420054912567,0.04448400065302849
1714217598621476900,6.092476806640625,-0.47250398993492126,-0.2589719891548157,-0.018391000106930733
1714217598631124500,6.10212451171875,-0.3758319914340973,-0.2812809944152832,0.012334000319242477
1714217598640772400,6.1117724609375,-0.24142199754714966,-0.3373050093650818,0.10457400232553482
1714217598650420000,6.121419921875,-0.11790399998426437,-0.38433098793029785,0.13407300412654877
1714217598660067600,6.131067626953125,-0.0928419977426529,-0.3559249937534332,0.08959099650382996
1714217598669715000,6.14071484375,-0.06459099799394608,-0.40369200706481934,0.09113000333309174
1714217598679362800,6.15036279296875,-0.1353120058774948,-0.42666399478912354,0.10030899941921234
1714217598689010400,6.160010498046875,-0.1886879950761795,-0.4342089891433716,0.06147100031375885
1714217598698658000,6.169657958984375,-0.24551300704479218,-0.4433409869670868,-0.0016700000269338489
1714217598708305700,6.1793056640625,-0.244500994682312,-0.4495219886302948,-0.009948000311851501
1714217598717953300,6.188953369140625,-0.16491499543190002,-0.4040910005569458,-0.05353499948978424
1714217598727601000,6.198600830078125,-0.08224800229072571,-0.38182199001312256,-0.11341699957847595
1714217598737248300,6.208248291015625,-0.0970970019698143,-0.3148620128631592,-0.07255099713802338
1714217598746896000,6.217895751953125,-0.13675500452518463,-0.30776500701904297,0.018333999440073967
1714217598756543700,6.227543701171875,-0.26019299030303955,-0.2725040018558502,0.03832300007343292
1714217598766191400,6.23719140625,-0.3544979989528656,-0.23719699680805206,0.08702900260686874
1714217598775839000,6.2468388671875,-0.2736789882183075,-0.20338399708271027,0.1274379938840866
1714217598785486300,6.256486328125,-0.13706499338150024,-0.1910810023546219,0.14733800292015076
1714217598795134200,6.26613427734375,0.10666900128126144,-0.12827099859714508,0.22064200043678284
1714217598804781800,6.27578173828125,0.2839449942111969,-0.1284330040216446,0.34832799434661865
1714217598814429400,6.285429443359375,0.3094390034675598,-0.12058400362730026,0.3699069917201996
1714217598824077000,6.2950771484375,0.17372499406337738,-0.12362799793481827,0.4131369888782501
1714217598833724700,6.304724609375,0.022866999730467796,-0.08133500069379807,0.4157960116863251
1714217598843372300,6.314372314453125,-0.1131109967827797,-0.055945999920368195,0.4014819860458374
1714217598853020000,6.32402001953125,-0.22302399575710297,-0.041204001754522324,0.3761500120162964
1714217598862667300,6.333667236328125,-0.16925999522209167,0.017753999680280685,0.3447979986667633
1714217598872315100,6.343315185546875,-0.10219299793243408,0.06165599822998047,0.26839300990104675
1714217598881962800,6.352962646484375,-0.03569599986076355,0.1677819937467575,0.11183600127696991
1714217598891610000,6.362610107421875,0.07254499942064285,0.1319119930267334,-0.04045899957418442
1714217598901258000,6.372258056640625,0.15229499340057373,0.11870300024747849,-0.08692800253629684
1714217598910905600,6.381905517578125,0.20502400398254395,0.07718899846076965,-0.06296499818563461
1714217598920553200,6.39155322265625,0.3662030100822449,0.1072629988193512,-0.08343800157308578
1714217598930200600,6.40120068359375,0.44666001200675964,0.1572449952363968,-0.047352999448776245
1714217598939848200,6.41084814453125,0.4448390007019043,0.19786299765110016,-0.02653600089251995
1714217598949496000,6.42049609375,0.41759398579597473,0.25141099095344543,-0.018000999465584755
1714217598959143700,6.430143798828125,0.4027769863605499,0.32831400632858276,-0.05000400170683861
1714217598968791300,6.439791259765625,0.2953779995441437,0.3698360025882721,-0.05171800032258034
1714217598978438700,6.449438720703125,0.22651100158691406,0.40260401368141174,0.053713999688625336
1714217598988086500,6.45908642578125,0.22805100679397583,0.34773701429367065,0.09884099662303925
1714217598997734100,6.468734130859375,0.2002740055322647,0.2971940040588379,0.12402000278234482
1714217599007381500,6.478381591796875,0.2017820030450821,0.2981170117855072,0.05181099846959114
1714217599017029000,6.488029052734375,0.2560029923915863,0.24589000642299652,0.01211399957537651
1714217599026676700,6.4976767578125,0.2844800055027008,0.20993700623512268,-0.04958299919962883
1714217599036324600,6.50732470703125,0.24377399682998657,0.16869600117206573,-0.07189899682998657
1714217599045972200,6.51697216796875,0.2719550132751465,0.12104800343513489,0.026882000267505646
1714217599055619600,6.52661962890625,0.25891000032424927,0.09023900330066681,0.018533999100327492
1714217599065267200,6.53626708984375,0.21901999413967133,0.05631000176072121,-0.017464999109506607
1714217599074915000,6.5459150390625,0.15187899768352509,0.07654699683189392,-0.0014260000316426158
1714217599084562400,6.5555625,0.044989001005887985,0.11521799862384796,-0.0008559999987483025
1714217599094210300,6.565210205078125,-0.13067099452018738,0.13161900639533997,-0.04271300137042999
1714217599103857700,6.574857666015625,-0.37215399742126465,0.1734369993209839,-0.11727000027894974
1714217599113505300,6.58450537109375,-0.5475959777832031,0.21578800678253174,-0.21345800161361694
1714217599123153000,6.59415283203125,-0.706620991230011,0.18668000400066376,-0.2244500070810318
1714217599132800500,6.603800537109375,-0.7599869966506958,0.1515669971704483,-0.2374649941921234
1714217599142448400,6.613448486328125,-0.6892269849777222,0.10750199854373932,-0.14499099552631378
1714217599152096000,6.623095947265625,-0.49846601486206055,0.10695300251245499,-0.02246199920773506
1714217599161743400,6.632743408203125,-0.3469800055027008,0.16307899355888367,0.003091000020503998
1714217599171391000,6.642390869140625,-0.29285699129104614,0.17855499684810638,0.04050000011920929
1714217599181038600,6.65203857421875,-0.3182240128517151,0.2185409963130951,0.04608900099992752
1714217599190686200,6.661686279296875,-0.3869439959526062,0.28957700729370117,0.03842199966311455
1714217599200333800,6.671333740234375,-0.43842899799346924,0.36174699664115906,0.10476099699735641
1714217599209981400,6.6809814453125,-0.38504400849342346,0.43595001101493835,0.17761600017547607
1714217599219629000,6.690629150390625,-0.23237599432468414,0.4679909944534302,0.2106889933347702
1714217599229276700,6.700276611328125,-0.0842289999127388,0.5464910268783569,0.1627970039844513
1714217599238924300,6.70992431640625,0.05501199886202812,0.5660009980201721,0.04708800092339516
1714217599248572000,6.719572021484375,0.20298099517822266,0.5918200016021729,-0.13201500475406647
1714217599258219500,6.729219482421875,0.327798992395401,0.5230889916419983,-0.11253099888563156
1714217599267867100,6.7388671875,0.47572699189186096,0.4675930142402649,-0.017997000366449356
1714217599277514800,6.7485146484375,0.6397719979286194,0.40843600034713745,0.017854999750852585
1714217599287162400,6.758162353515625,0.7879400253295898,0.37810200452804565,0.0263689998537302
1714217599296810200,6.767810302734375,0.8428919911384583,0.3461880087852478,0.08183900266885757
1714217599306457600,6.77745751953125,0.7196850180625916,0.3494870066642761,0.12806400656700134
1714217599316105200,6.787105224609375,0.530722975730896,0.2954300045967102,0.12600000202655792
1714217599325752800,6.7967529296875,0.2996860146522522,0.26413801312446594,0.1463789939880371
1714217599335400400,6.806400390625,0.029910000041127205,0.21839499473571777,0.10707499831914902
1714217599345048000,6.816048095703125,-0.119098000228405,0.21267500519752502,0.11626099795103073
1714217599354695700,6.82569580078125,-0.21186299622058868,0.18124300241470337,0.14370399713516235
1714217599364343300,6.83534326171875,-0.23865200579166412,0.15073199570178986,0.17939700186252594
1714217599373991000,6.844990966796875,-0.26368799805641174,0.17639000713825226,0.1761620044708252
1714217599383638800,6.854638671875,-0.20916399359703064,0.17582200467586517,0.19763900339603424
1714217599393286100,6.8642861328125,-0.05851700156927109,0.10176499933004379,0.1818149983882904
1714217599402933800,6.873933837890625,-0.03130999952554703,0.1290770024061203,0.08281999826431274
1714217599412581400,6.883581298828125,0.025105999782681465,0.1845480054616928,0.14054599404335022
1714217599422229000,6.89322900390625,0.012014999985694885,0.22204700112342834,0.20807300508022308
1714217599431876600,6.902876708984375,-0.06616800278425217,0.2812719941139221,0.2077060043811798
1714217599441524200,6.912524169921875,-0.10628999769687653,0.3174990117549896,0.2599790096282959
1714217599451171600,6.922171630859375,-0.17109200358390808,0.256089985370636,0.25376299023628235
1714217599460819500,6.9318193359375,-0.18448899686336517,0.24108299612998962,0.0983090028166771
1714217599470467000,6.941467041015625,-0.047377001494169235,0.11296200007200241,0.01154400035738945
1714217599480114400,6.951114501953125,0.23825399577617645,0.08813799917697906,0.04821399971842766
1714217599489762000,6.960761962890625,0.5926460027694702,0.1411219984292984,0.1444929987192154
1714217599499409700,6.97040966796875,0.7022770047187805,0.19159500300884247,0.2220280021429062
1714217599509057500,6.9800576171875,0.40571099519729614,0.2006089985370636,0.23022399842739105
1714217599518705200,6.989705078125,0.0675550028681755,0.14591699838638306,0.26291999220848083
1714217599528352500,6.9993525390625,-0.2959519922733307,0.12181899696588516,0.21066799759864807
1714217599538000100,7.009000244140625,-0.5256839990615845,0.08465500175952911,0.14255400002002716
1714217599547647700,7.018647705078125,-0.5497679710388184,0.10809499770402908,0.04577700048685074
1714217599557295400,7.02829541015625,-0.3999679982662201,0.08161900192499161,-0.0728129968047142
1714217599566943000,7.03794287109375,-0.18231399357318878,0.042128000408411026,-0.13803300261497498
1714217599576590600,7.047590576171875,-0.12914800643920898,-0.018106000497937202,-0.22358299791812897
1714217599586238200,7.05723828125,-0.02384299971163273,-0.16077299416065216,-0.1741359978914261
1714217599595885800,7.0668857421875,0.16467300057411194,-0.2841320037841797,-0.09318999946117401
1714217599605533700,7.07653369140625,0.44495001435279846,-0.27667999267578125,0.03907399997115135
1714217599615181000,7.08618115234375,0.6063089966773987,-0.2775079905986786,0.10566499829292297
1714217599624828700,7.09582861328125,0.6975229978561401,-0.19698700308799744,0.1380929946899414
1714217599634476500,7.1054765625,0.5878180265426636,-0.15150800347328186,0.21981599926948547
1714217599644124000,7.1151240234375,0.38210800290107727,-0.1008950024843216,0.22150899469852448
1714217599653771500,7.124771484375,0.27325600385665894,-0.04737799987196922,0.1974640041589737
1714217599663419100,7.134419189453125,0.313960999250412,-0.005255000200122595,0.15320999920368195
1714217599673066800,7.144066650390625,0.3142159879207611,0.019889000803232193,0.009312000125646591
1714217599682714400,7.15371435546875,0.2870100140571594,0.03209799900650978,-0.13865500688552856
1714217599692362000,7.163362060546875,0.3280769884586334,0.030406000092625618,-0.2145179957151413
1714217599702009600,7.173009521484375,0.36897701025009155,0.05612099915742874,-0.2617090046405792
1714217599711657000,7.182656982421875,0.34210601449012756,0.053592998534440994,-0.2031009942293167
1714217599721304800,7.192304931640625,0.2744410037994385,0.036713000386953354,-0.15097999572753906
1714217599730952400,7.201952392578125,0.1797569990158081,0.01895900070667267,-0.06823699921369553
1714217599740600000,7.21160009765625,0.20677199959754944,-0.047676000744104385,0.012009000405669212
1714217599750247700,7.22124755859375,0.24809600412845612,-0.1185619980096817,-0.07168500125408173
1714217599759895300,7.230895263671875,0.24608400464057922,-0.18808500468730927,-0.1596049964427948
1714217599769542700,7.240542724609375,0.3823550045490265,-0.2837199866771698,-0.25807899236679077
1714217599779190500,7.2501904296875,0.623652994632721,-0.31452998518943787,-0.3357110023498535
1714217599788838100,7.259838134765625,0.7194569706916809,-0.38548699021339417,-0.36507898569107056
1714217599798485500,7.269485595703125,0.7707769870758057,-0.3658129870891571,-0.32097798585891724
1714217599808133000,7.279133056640625,0.6230630278587341,-0.4201290011405945,-0.19918900728225708
1714217599817781000,7.288781005859375,0.3224070072174072,-0.3729729950428009,-0.13870899379253387
1714217599827428600,7.2984287109375,0.026050999760627747,-0.32569199800491333,-0.16895200312137604
1714217599837076200,7.308076171875,-0.19122900068759918,-0.3162199854850769,-0.14997899532318115
1714217599846723600,7.3177236328125,-0.32427799701690674,-0.32218998670578003,-0.14147299528121948
1714217599856371200,7.32737109375,-0.33750998973846436,-0.28387200832366943,-0.20198899507522583
1714217599866019000,7.33701904296875,-0.2535110116004944,-0.2978239953517914,-0.2474920004606247
1714217599875666400,7.34666650390625,-0.145346000790596,-0.29307499527931213,-0.2105560004711151
1714217599885314000,7.35631396484375,-0.1436150074005127,-0.26277899742126465,-0.18669700622558594
1714217599894961700,7.365961669921875,-0.25378701090812683,-0.3099069893360138,-0.12830500304698944
1714217599904609300,7.375609375,-0.2253890037536621,-0.3578000068664551,-0.17319899797439575
1714217599914257200,7.385257080078125,-0.16031600534915924,-0.3936910033226013,-0.1162320002913475
1714217599923904500,7.394904541015625,-0.050953999161720276,-0.4097149968147278,-0.07985500246286392
1714217599933552000,7.40455224609375,0.12238799780607224,-0.40018200874328613,-0.0658240020275116
1714217599943199700,7.41419970703125,0.09553900361061096,-0.47067898511886597,0.03975899890065193
1714217599952847400,7.423847412109375,0.04974199831485748,-0.548088014125824,0.13482199609279633
1714217599962495000,7.433494873046875,-0.018129000440239906,-0.5629609823226929,0.14120300114154816
1714217599972142800,7.443142822265625,-0.023737000301480293,-0.6076639890670776,0.1496559977531433
1714217599981790200,7.452790283203125,0.01692900061607361,-0.7011330127716064,0.17870600521564484
1714217599991437800,7.462437744140625,0.14660699665546417,-0.6834830045700073,0.15630200505256653
1714217600001085400,7.47208544921875,0.26913198828697205,-0.6956719756126404,0.14273099601268768
1714217600010733000,7.481733154296875,0.22305800020694733,-0.6440629959106445,0.15964099764823914
1714217600020380700,7.491380615234375,0.0743589997291565,-0.5822160243988037,0.1856819987297058
1714217600030028300,7.5010283203125,-0.18637500703334808,-0.48402100801467896,0.1480640023946762
1714217600039676000,7.510676025390625,-0.5517770051956177,-0.4030900001525879,0.1196879968047142
1714217600049323300,7.5203232421875,-0.9594860076904297,-0.3378109931945801,0.09627699851989746
1714217600058971000,7.529970947265625,-1.2704700231552124,-0.31012898683547974,-0.01513999979943037
1714217600068618800,7.53961865234375,-1.487831950187683,-0.28648000955581665,-0.19385500252246857
1714217600078266400,7.549266357421875,-1.623805046081543,-0.28624001145362854,-0.36800599098205566
1714217600087913700,7.558913818359375,-1.2309069633483887,-0.18114399909973145,-0.46242499351501465
1714217600097561600,7.5685615234375,-0.688618004322052,-0.21865500509738922,-0.41791900992393494
1714217600107209200,7.578209228515625,-0.2989709973335266,-0.23967799544334412,-0.3745189905166626
1714217600116856600,7.587856689453125,-0.07050400227308273,-0.23205000162124634,-0.42178401350975037
1714217600126504400,7.59750439453125,-0.048239000141620636,-0.21274800598621368,-0.40489500761032104
1714217600136152000,7.607152099609375,-0.14634199440479279,-0.15140099823474884,-0.3751769959926605
1714217600145799700,7.616799560546875,-0.23155799508094788,-0.09904299676418304,-0.2644349932670593
1714217600155447000,7.626447021484375,-0.3163380026817322,-0.07494600117206573,-0.23910599946975708
1714217600165094700,7.6360947265625,-0.2384669929742813,-0.058605000376701355,-0.1495790034532547
1714217600174742300,7.6457421875,-0.03824000060558319,-0.12067899852991104,-0.1067420020699501
1714217600184390100,7.65539013671875,0.2693749964237213,-0.11472699791193008,-0.10820899903774261
1714217600194037800,7.665037841796875,0.7006070017814636,-0.047529999166727066,-0.09899800270795822
1714217600203685000,7.67468505859375,0.981889009475708,0.03497200086712837,-0.18463200330734253
1714217600213332700,7.684332763671875,1.2370719909667969,0.23173199594020844,-0.3467870056629181
1714217600222980400,7.69398046875,1.358456015586853,0.405254989862442,-0.39024901390075684
1714217600232628000,7.7036279296875,1.247763991355896,0.6399980187416077,-0.45621898770332336
1714217600242275600,7.713275634765625,1.046429991722107,0.7746970057487488,-0.407586008310318
1714217600251923200,7.722923095703125,0.7056559920310974,0.791176974773407,-0.344199001789093
1714217600261570800,7.73257080078125,0.4244160056114197,0.814981997013092,-0.30775099992752075
1714217600271218400,7.742218505859375,0.2610050141811371,0.7876700162887573,-0.23565800487995148
1714217600280866000,7.751865966796875,0.16992299258708954,0.6817290186882019,-0.19369900226593018
1714217600290513700,7.761513671875,0.16978399455547333,0.5743319988250732,-0.1893569976091385
1714217600300161300,7.771161376953125,0.26768800616264343,0.4568899869918823,-0.05891500040888786
1714217600309809000,7.780808837890625,0.322050005197525,0.3494130074977875,0.12332399934530258
1714217600319456300,7.790456298828125,0.3370879888534546,0.2816610038280487,0.22144000232219696
1714217600329104000,7.800103759765625,0.35085800290107727,0.28043800592422485,0.19520799815654755
1714217600338751500,7.80975146484375,0.20299500226974487,0.26285800337791443,0.15826499462127686
1714217600348399400,7.8193994140625,-0.05520699918270111,0.2578260004520416,0.11661700159311295
1714217600358046700,7.829046630859375,-0.25703001022338867,0.22289599478244781,0.11030200123786926
1714217600367694300,7.8386943359375,-0.4471319913864136,0.23176300525665283,0.07117900252342224
1714217600377342000,7.848342041015625,-0.5122659802436829,0.2619059979915619,0.04506500065326691
1714217600386989600,7.857989501953125,-0.45752599835395813,0.3282260000705719,0.009429000318050385
1714217600396637200,7.86763720703125,-0.3858160078525543,0.3816779851913452,-0.06174900010228157
1714217600406284800,7.877284912109375,-0.41287100315093994,0.4487360119819641,-0.16495700180530548
1714217600415932400,7.886932373046875,-0.46265900135040283,0.48145800828933716,-0.16257800161838531
1714217600425580000,7.896580078125,-0.44896599650382996,0.4813379943370819,-0.1576399952173233
1714217600435227600,7.9062275390625,-0.37661001086235046,0.4772390127182007,-0.09224499762058258
1714217600444875300,7.915875244140625,-0.33605000376701355,0.4936859905719757,0.022407999262213707
1714217600454523000,7.92552294921875,-0.22423799335956573,0.4042629897594452,0.09013000130653381
1714217600464170800,7.935170654296875,-0.02077299915254116,0.3702310025691986,0.055013999342918396
1714217600473818000,7.944818115234375,0.15780599415302277,0.3459320068359375,0.005772999953478575
1714217600483465700,7.9544658203125,0.36103400588035583,0.2998819947242737,-0.0854170024394989
1714217600493113000,7.964113037109375,0.5382840037345886,0.21806299686431885,-0.142535001039505
1714217600502761000,7.973760986328125,0.5784440040588379,0.114437997341156,-0.1959719955921173
1714217600512408600,7.98340869140625,0.5239769816398621,0.10175400227308273,-0.16040199995040894
1714217600522056000,7.993055908203125,0.4422529935836792,0.10162600129842758,-0.06616400182247162
1714217600531703600,8.00270361328125,0.2927510142326355,0.04452899843454361,0.0002610000083222985
1714217600541351200,8.01235107421875,0.12978200614452362,-0.027055000886321068,0.014264999888837337
1714217600550999000,8.0219990234375,0.17018499970436096,-0.06543099880218506,0.14293700456619263
1714217600560646400,8.031646484375,0.37485799193382263,-0.0406779982149601,0.2539370059967041
1714217600570294000,8.0412939453125,0.5111510157585144,0.038750000298023224,0.2399120032787323
1714217600579941600,8.050941650390625,0.47117000818252563,0.05938500165939331,0.1573130041360855
1714217600589589200,8.06058935546875,0.35043901205062866,0.11362399905920029,0.03230300173163414
1714217600599236900,8.07023681640625,0.14778199791908264,0.18327699601650238,-0.009363999590277672
1714217600608884500,8.079884521484376,0.001322000054642558,0.17289499938488007,-0.02182300016283989
1714217600618531800,8.08953173828125,-0.11941999942064285,0.1598850041627884,0.08719799667596817
1714217600628179700,8.0991796875,-0.1570509970188141,0.17730100452899933,0.13246700167655945
1714217600637827300,8.108827392578124,-0.06043500080704689,0.250203013420105,0.06401500105857849
1714217600647475000,8.118474853515625,-0.08401499688625336,0.2665889859199524,-0.05356999859213829
1714217600657122300,8.128122314453124,-0.13756799697875977,0.287788987159729,-0.2556400001049042
1714217600666770200,8.137770263671875,-0.10745599865913391,0.21593999862670898,-0.22415800392627716
1714217600676417800,8.147417724609374,-0.09370200335979462,0.0792360007762909,-0.12523800134658813
1714217600686065200,8.157065185546875,0.12515099346637726,0.14281299710273743,-0.19272799789905548
1714217600695712800,8.166712646484376,0.28802698850631714,0.1876170039176941,-0.1640779972076416
1714217600705360400,8.1763603515625,0.4251059889793396,0.22294500470161438,-0.05290000140666962
1714217600715008300,8.18600830078125,0.3702940046787262,0.19783300161361694,-0.012485000304877758
1714217600724655600,8.195655517578125,0.2620759904384613,0.15201300382614136,0.0008239999879151583
1714217600734303500,8.205303466796876,0.2345310002565384,0.154229998588562,-0.05195000022649765
1714217600743951000,8.214951171875,0.3440459966659546,0.15184499323368073,-0.11002200096845627
1714217600753598700,8.2245986328125,0.4661079943180084,0.14226199686527252,-0.1327199935913086
1714217600763246000,8.23424609375,0.5744109749794006,0.07949300110340118,-0.07113800197839737
1714217600772893700,8.243893798828125,0.6691160202026367,-0.011385000310838223,-0.0831959992647171
1714217600782541300,8.253541259765624,0.7218949794769287,-0.02697400003671646,-0.06771299988031387
1714217600792189200,8.263189208984375,0.680662989616394,-0.011340999975800514,-0.09838499873876572
1714217600801836500,8.27283642578125,0.5439969897270203,0.005721000023186207,-0.12324400246143341
1714217600811484200,8.282484130859375,0.40816599130630493,-0.011006000451743603,-0.08667399734258652
1714217600821131500,8.292131591796876,0.19034799933433533,-0.03890100121498108,-0.07257600128650665
1714217600830779400,8.301779296875,0.13655999302864075,-0.016509000211954117,-0.11482100188732147
1714217600840427000,8.311427001953126,0.16418799757957458,-0.031355999410152435,-0.14592500030994415
1714217600850074600,8.32107470703125,0.26020801067352295,-0.07652100175619125,-0.04906100034713745
1714217600859722000,8.330721923828126,0.395332008600235,-0.12419400364160538,0.029836999252438545
1714217600869369900,8.340369873046875,0.4914189875125885,-0.18399100005626678,0.08196499943733215
1714217600879017500,8.350017578125,0.4764159917831421,-0.1897760033607483,0.08519700169563293
1714217600888664800,8.359664794921875,0.40974199771881104,-0.17286799848079681,0.024870000779628754
1714217600898312400,8.3693125,0.20570500195026398,-0.16182400286197662,0.018696000799536705
1714217600907960000,8.3789599609375,-0.10521099716424942,-0.17781199514865875,0.028936000540852547
1714217600917607700,8.388607666015625,-0.3494749963283539,-0.21148499846458435,0.051961999386548996
1714217600927255300,8.39825537109375,-0.46975699067115784,-0.28084298968315125,0.06674599647521973
1714217600936903000,8.40790283203125,-0.42937999963760376,-0.3051210045814514,0.07884600013494492
1714217600946550300,8.41755029296875,-0.2642279863357544,-0.3837839961051941,0.17843100428581238
1714217600956198100,8.4271982421875,-0.10353200137615204,-0.43536099791526794,0.23512400686740875
1714217600965845800,8.436845703125,-0.06108200177550316,-0.45910900831222534,0.2779200077056885
1714217600975493400,8.446493408203125,-0.09082099795341492,-0.44452500343322754,0.2622080147266388
1714217600985140700,8.456140625,-0.18417300283908844,-0.4303170144557953,0.2344599962234497
1714217600994788400,8.465788330078125,-0.3895590007305145,-0.3836100101470947,0.19516900181770325
1714217601004436200,8.475436279296876,-0.5100280046463013,-0.4108330011367798,0.19639800488948822
1714217601014083800,8.485083740234375,-0.497763991355896,-0.38916099071502686,0.17485499382019043
1714217601023731500,8.4947314453125,-0.42799100279808044,-0.39958199858665466,0.1927579939365387
1714217601033379000,8.504379150390625,-0.29328200221061707,-0.3499549925327301,0.23719599843025208
1714217601043026700,8.514026611328125,-0.3051930069923401,-0.40143001079559326,0.26936501264572144
1714217601052674000,8.523674072265624,-0.31970900297164917,-0.3144890069961548,0.18118199706077576
1714217601062321700,8.53332177734375,-0.37241101264953613,-0.3664819896221161,0.2939870059490204
1714217601071969300,8.54296923828125,-0.4145529866218567,-0.33220699429512024,0.2656269967556
1714217601081617000,8.552616943359375,-0.37247300148010254,-0.3944309949874878,0.2804329991340637
1714217601091264500,8.562264404296876,-0.32116299867630005,-0.4430820047855377,0.23934000730514526
1714217601100912000,8.571912109375,-0.1571660041809082,-0.5010560154914856,0.19985100626945496
1714217601110559700,8.581559814453126,-0.024984000250697136,-0.47540199756622314,0.19026599824428558
1714217601120207400,8.591207275390625,-0.010672999545931816,-0.42527100443840027,0.11166299879550934
1714217601129855000,8.60085498046875,-0.05378999933600426,-0.3695540130138397,0.11075899749994278
1714217601139502600,8.610502685546875,-0.1069289967417717,-0.4051389992237091,0.10511799901723862
1714217601149150200,8.620150146484375,-0.24474699795246124,-0.3662570118904114,-0.03245000168681145
1714217601158797800,8.6297978515625,-0.21619300544261932,-0.37406501173973083,-0.03516700118780136
1714217601168445400,8.639445556640625,-0.04013099893927574,-0.2569279968738556,-0.05985400080680847
1714217601178092800,8.6490927734375,0.09734500199556351,-0.22314099967479706,-0.005669000092893839
1714217601187740700,8.65874072265625,0.09704200178384781,-0.1664379984140396,0.1461780071258545
1714217601197388300,8.66838818359375,0.07130099833011627,-0.20261499285697937,0.3592729866504669
1714217601207035600,8.67803564453125,-0.03827900066971779,-0.1735610067844391,0.40627700090408325
1714217601216683300,8.687683349609374,-0.07818599790334702,-0.13887499272823334,0.3801960051059723
1714217601226331000,8.697330810546875,-0.06537199765443802,-0.1221110001206398,0.37058600783348083
1714217601235978500,8.706978515625,-0.03795500099658966,-0.1641550064086914,0.38391900062561035
1714217601245626000,8.716626220703125,0.06846000254154205,-0.21750900149345398,0.46511098742485046
1714217601255273700,8.726273681640626,0.17722299695014954,-0.2568979859352112,0.5624499917030334
1714217601264921000,8.735921142578125,0.16145700216293335,-0.1764959990978241,0.6209920048713684
1714217601274569000,8.74556884765625,0.07975900173187256,-0.01323499996215105,0.5659440159797668
1714217601284216800,8.755216796875,-0.10886800289154053,0.17653299868106842,0.35285499691963196
1714217601293864200,8.7648642578125,-0.3130030035972595,0.2842879891395569,0.14575600624084473
1714217601303511800,8.77451171875,-0.5408350229263306,0.3143010139465332,-0.03090599924325943
1714217601313159400,8.784159423828125,-0.6098089814186096,0.3880639970302582,-0.11502499878406525
1714217601322807000,8.79380712890625,-0.4705910086631775,0.4093349874019623,-0.058083999902009964
1714217601332454700,8.80345458984375,-0.29578500986099243,0.41040799021720886,-0.03091599978506565
1714217601342102300,8.813102294921874,-0.15816600620746613,0.4149419963359833,-0.06647899746894836
1714217601351749600,8.82274951171875,0.0024590000975877047,0.43343499302864075,-0.10509300231933594
1714217601361397200,8.832397216796876,0.1123180016875267,0.42790600657463074,-0.12177299708127975
1714217601371044900,8.842044921875,0.1777389943599701,0.4184800088405609,-0.11832399666309357
1714217601380692500,8.8516923828125,0.1512569934129715,0.3868890106678009,-0.18523800373077393
1714217601390340000,8.861340087890625,0.1215599998831749,0.3625819981098175,-0.2356339991092682
1714217601399987700,8.87098779296875,0.20348800718784332,0.32148998975753784,-0.23021599650382996
1714217601409635300,8.88063525390625,0.2828829884529114,0.3103649914264679,-0.18273599445819855
1714217601419283000,8.890282958984375,0.35125499963760376,0.32351401448249817,-0.17893899977207184
1714217601428930600,8.8999306640625,0.48563000559806824,0.3911280035972595,-0.1846199929714203
1714217601438578200,8.909578125,0.5140460133552551,0.3709239959716797,-0.14241400361061096
1714217601448225800,8.919225830078124,0.41774100065231323,0.3645159900188446,-0.14973099529743195
1714217601457873200,8.928873046875,0.3107689917087555,0.33858901262283325,-0.09760099649429321
1714217601467520800,8.938520751953124,0.29684001207351685,0.3414590060710907,-0.09076900035142899
1714217601477168400,8.94816845703125,0.3129369914531708,0.33945900201797485,-0.040800001472234726
1714217601486816300,8.957816162109374,0.29945001006126404,0.2849549949169159,-0.006537000183016062
1714217601496463600,8.967463623046875,0.2880280017852783,0.2577340006828308,-0.03908199816942215
1714217601506111200,8.977111328125,0.30226901173591614,0.28163599967956543,-0.060499001294374466
1714217601515758600,8.986758544921875,0.2507320046424866,0.24988700449466705,-0.07847599685192108
1714217601525406500,8.996406494140626,0.1022379994392395,0.26890599727630615,-0.11606000363826752
1714217601535054000,9.00605419921875,-0.05663599818944931,0.2818340063095093,-0.13260099291801453
1714217601544701700,9.01570166015625,-0.136570006608963,0.28433600068092346,-0.1035659983754158
1714217601554349300,9.025349365234375,-0.2538209855556488,0.30639100074768066,-0.0965920016169548
1714217601563997000,9.034996826171875,-0.3611310124397278,0.2961759865283966,-0.042040999978780746
1714217601573644500,9.04464453125,-0.356471985578537,0.2678309977054596,-0.014034000225365162
1714217601583292000,9.0542919921875,-0.3146919906139374,0.2349569946527481,-0.02824000082910061
1714217601592939500,9.063939453125,-0.17518599331378937,0.2425210028886795,-0.013814999721944332
1714217601602587400,9.07358740234375,-0.01133699994534254,0.26734599471092224,-0.013863000087440014
1714217601612235000,9.083235107421874,0.07333499938249588,0.26341500878334045,-0.0009510000236332417
1714217601621882400,9.09288232421875,0.04669199883937836,0.2732729911804199,-0.016349999234080315
1714217601631530000,9.102530029296876,0.05018499866127968,0.29312700033187866,0.019798999652266502
1714217601641177300,9.11217724609375,0.06438600271940231,0.3572869896888733,0.08346299827098846
1714217601650825200,9.1218251953125,0.06794899702072144,0.3347429931163788,0.1756879985332489
1714217601660472800,9.131472900390625,0.17727400362491608,0.27762898802757263,0.25262099504470825
1714217601670120400,9.141120361328126,0.27469301223754883,0.2767530083656311,0.35001900792121887
1714217601679768000,9.15076806640625,0.4246569871902466,0.20766299962997437,0.42978599667549133
1714217601689415700,9.160415771484375,0.561214029788971,0.16275599598884583,0.366890013217926
1714217601699063300,9.170063232421874,0.6568269729614258,0.2293819934129715,0.31298500299453735
1714217601708710700,9.179710693359375,0.7811610102653503,0.27293699979782104,0.2585749924182892
1714217601718358500,9.189358642578124,0.7141429781913757,0.28061801195144653,0.16440999507904053
1714217601728006100,9.199006103515625,0.5528579950332642,0.18681299686431885,0.040421001613140106
1714217601737653800,9.20865380859375,0.44519200921058655,0.0843299999833107,-0.0003769999893847853
1714217601747301000,9.218301025390625,0.4719510078430176,-0.035757001489400864,0.011171000078320503
1714217601756948700,9.22794873046875,0.540569007396698,-0.12049099802970886,0.0361969992518425
1714217601766596600,9.2375966796875,0.6744830012321472,-0.13513199985027313,-0.032388001680374146
1714217601776244000,9.247243896484376,0.8247569799423218,-0.20579299330711365,-0.07408200204372406
1714217601785891600,9.2568916015625,0.9174479842185974,-0.19054299592971802,-0.12186499685049057
1714217601795539200,9.266539306640626,0.8642629981040955,-0.2113949954509735,-0.1764799952507019
1714217601805186800,9.276186767578125,0.7263450026512146,-0.2286970019340515,-0.11714600026607513
1714217601814834400,9.28583447265625,0.5786920189857483,-0.20011299848556519,-0.024181000888347626
1714217601824482000,9.29548193359375,0.3606419861316681,-0.18637000024318695,0.036667998880147934
1714217601834129700,9.305129638671875,0.13159599900245667,-0.22785499691963196,0.09887199848890305
1714217601843777300,9.31477734375,0.06403400003910065,-0.1499760001897812,0.11322800070047379
1714217601853425000,9.3244248046875,0.07970699667930603,-0.1070529967546463,0.1216999962925911
1714217601863072500,9.334072509765624,0.09290099889039993,-0.18709300458431244,0.11060599982738495
1714217601872720000,9.343719970703125,-0.014313999563455582,-0.08788800239562988,0.05143100023269653
1714217601882367700,9.35336767578125,-0.06829699873924255,-0.11810100078582764,0.018912000581622124
1714217601892015000,9.36301513671875,-0.12133000046014786,-0.16701899468898773,0.027736999094486237
1714217601901663000,9.3726630859375,-0.17598800361156464,-0.15290699899196625,0.07133399695158005
1714217601911310300,9.382310302734375,-0.147707998752594,-0.1451610028743744,0.07772400230169296
1714217601920958000,9.3919580078125,-0.14770300686359406,-0.11825799942016602,0.04100500047206879
1714217601930605600,9.40160546875,-0.2691659927368164,-0.04273800179362297,-0.08817099779844284
1714217601940253200,9.411253173828126,-0.33483099937438965,0.026184000074863434,-0.16287299990653992
1714217601949900500,9.420900634765625,-0.40171700716018677,0.01967800036072731,-0.19173499941825867
1714217601959548200,9.430548095703125,-0.44020500779151917,0.02117300033569336,-0.19302800297737122
1714217601969196000,9.440196044921874,-0.4803430140018463,0.04460399970412254,-0.22057099640369415
1714217601978843600,9.44984375,-0.39670801162719727,0.048882000148296356,-0.2719169855117798
1714217601988491000,9.459490966796874,-0.27414000034332275,0.06244700029492378,-0.30225101113319397
1714217601998138600,9.469138671875,-0.21805599331855774,0.09579300135374069,-0.36633801460266113
1714217602007786200,9.4787861328125,-0.17749899625778198,0.06975399702787399,-0.4284000098705292
1714217602017433900,9.488433837890625,-0.20344799757003784,0.0779229998588562,-0.4869999885559082
1714217602027081500,9.49808154296875,-0.17663300037384033,-0.015545999631285667,-0.49268001317977905
1714217602036729000,9.50772900390625,-0.06910199671983719,-0.10176700353622437,-0.4668700098991394
1714217602046376700,9.517376708984376,0.10727600008249283,-0.1254590004682541,-0.46730199456214905
1714217602056024000,9.527024169921875,0.25529998540878296,-0.10028599947690964,-0.4407309889793396
1714217602065672000,9.536671875,0.37774500250816345,-0.11319000273942947,-0.42720499634742737
1714217602075319300,9.5463193359375,0.38978299498558044,-0.1302489936351776,-0.39380499720573425
1714217602084967000,9.555966796875,0.3087260127067566,-0.17524699866771698,-0.22313299775123596
1714217602094614500,9.565614501953124,0.19703200459480286,-0.2842620015144348,-0.02882000058889389
1714217602104262400,9.575262451171875,0.04811299964785576,-0.3446980118751526,0.03948099911212921
1714217602113910000,9.584909912109374,-0.009255999699234962,-0.3306899964809418,0.06238900125026703
1714217602123557400,9.594557373046875,0.018952999264001846,-0.3367120027542114,0.03648199886083603
1714217602133205000,9.604205078125,0.016621999442577362,-0.3247309923171997,-0.012059000320732594
1714217602142852600,9.6138525390625,-0.03618999943137169,-0.3476080000400543,0.050616998225450516
1714217602152500200,9.623500244140626,-0.14651499688625336,-0.3136270046234131,0.09522499889135361
1714217602162147800,9.63314794921875,-0.17185600101947784,-0.3648020029067993,0.1466750055551529
1714217602171795500,9.64279541015625,-0.21456700563430786,-0.3420169949531555,0.18566299974918365
1714217602181443000,9.652443115234375,-0.1586730033159256,-0.3089050054550171,0.276293009519577
1714217602191090400,9.66209033203125,-0.14707699418067932,-0.2989540100097656,0.3173530101776123
1714217602200738000,9.671738037109375,-0.18701399862766266,-0.3313319981098175,0.28186699748039246
1714217602210385700,9.6813857421875,-0.23033100366592407,-0.3183960020542145,0.1439249962568283
1714217602220033300,9.691033203125,-0.18903200328350067,-0.3480449914932251,0.07076500356197357
1714217602229681000,9.700680908203125,-0.08372800052165985,-0.3555060029029846,-0.012702999636530876
1714217602239328500,9.71032861328125,0.011566000059247017,-0.39612799882888794,-0.01570500060915947
1714217602248976100,9.71997607421875,0.11543899774551392,-0.42271000146865845,0.04429199919104576
1714217602258623700,9.729623779296874,0.23766599595546722,-0.4343549907207489,0.1588989943265915
1714217602268271400,9.739271240234375,0.20555099844932556,-0.4068630039691925,0.22832199931144714
1714217602277919000,9.7489189453125,0.0010310000507161021,-0.4189760088920593,0.20089900493621826
1714217602287566300,9.75856640625,-0.12631399929523468,-0.43229299783706665,0.04939600080251694
1714217602297214200,9.768214111328126,-0.1679069995880127,-0.42768698930740356,-0.17910799384117126
1714217602306861800,9.77786181640625,-0.14500999450683594,-0.3351460099220276,-0.40431898832321167
1714217602316509400,9.787509521484376,-0.009926999919116497,-0.21952800452709198,-0.5439159870147705
1714217602326156800,9.79715673828125,0.06901200115680695,-0.16290900111198425,-0.4374130070209503
1714217602335804400,9.806804443359376,0.02741600014269352,-0.10405799746513367,-0.30185699462890625
1714217602345452000,9.8164521484375,-0.12388300150632858,-0.10901899635791779,-0.1438239961862564
1714217602355099600,9.826099609375,-0.23356600105762482,-0.11835800111293793,-0.08745700120925903
1714217602364747300,9.835747314453124,-0.26264598965644836,-0.12103100121021271,-0.10386300086975098
1714217602374395000,9.845394775390625,-0.1959419995546341,-0.09898100048303604,-0.23398199677467346
1714217602384042500,9.85504248046875,-0.07531200349330902,-0.04602200165390968,-0.34077000617980957
1714217602393690000,9.864690185546875,-0.008973999880254269,0.005797999911010265,-0.40100398659706116
1714217602403337500,9.87433740234375,-0.091948002576828,0.014667999930679798,-0.43458399176597595
1714217602412985000,9.883985107421875,-0.22992999851703644,-0.014852999709546566,-0.4145030081272125
1714217602422633000,9.893633056640626,-0.4635950028896332,-0.09536200016736984,-0.33295801281929016
1714217602432280600,9.903280517578125,-0.5479649901390076,-0.10542400181293488,-0.29961198568344116
1714217602441928000,9.912927978515626,-0.4430539906024933,-0.14635199308395386,-0.13490299880504608
1714217602451575600,9.922575439453125,-0.14727500081062317,-0.20210400223731995,0.11790399998426437
1714217602461223200,9.93222314453125,0.14653100073337555,-0.1504250019788742,0.28338301181793213
1714217602470870800,9.941870849609375,0.292481005191803,-0.09616000205278397,0.38448500633239746
1714217602480518400,9.951518310546875,0.3429960012435913,-0.0017470000311732292,0.3545069992542267
1714217602490165800,9.961165771484374,0.24479499459266663,0.07339499890804291,0.2635979950428009
1714217602499813400,9.9708134765625,0.12113100290298462,0.17625899612903595,0.13812699913978577
1714217602509461000,9.9804609375,0.023621000349521637,0.2604779899120331,0.11589500308036804
1714217602519108600,9.990108642578125,0.038068000227212906,0.34977900981903076,0.08826500177383423
1714217602528756200,9.999756103515624,0.09066399931907654,0.44568300247192383,0.06589800119400024
1714217602538403800,10.00940380859375,0.06503999978303909,0.4203050136566162,0.06639300286769867
1714217602548051500,10.019051513671876,0.14528200030326843,0.5405099987983704,-0.06510400027036667
1714217602557699000,10.028698974609375,0.17556899785995483,0.5324640274047852,-0.0055680000223219395
1714217602567346700,10.0383466796875,0.10676400363445282,0.46983999013900757,0.03930800035595894
1714217602576994000,10.047994140625,0.02811799943447113,0.44723400473594666,0.11559300124645233
1714217602586642000,10.057641845703126,-0.13570000231266022,0.4089829921722412,0.18309399485588074
1714217602596289300,10.067289306640625,-0.3637140095233917,0.41038599610328674,0.11873800307512283
1714217602605937000,10.07693701171875,-0.4598360061645508,0.3747340142726898,0.07479599863290787
1714217602615584500,10.08658447265625,-0.3626050055027008,0.3071269989013672,-0.033275000751018524
1714217602625232100,10.096232177734375,-0.2144629955291748,0.30515098571777344,-0.061785999685525894
1714217602634879700,10.105879638671874,-0.023382000625133514,0.261680006980896,-0.0461370013654232
1714217602644527400,10.11552734375,0.12461499869823456,0.19273200631141663,-0.019749000668525696
1714217602654175000,10.125175048828124,0.20576900243759155,0.16928699612617493,0.004865999799221754
1714217602663822600,10.134822509765625,0.19074299931526184,0.20629699528217316,-0.011629000306129456
1714217602673470000,10.144469970703126,0.10993800312280655,0.2407590001821518,-0.06447900086641312
1714217602683117600,10.15411767578125,0.054680000990629196,0.28705599904060364,-0.16100400686264038
1714217602692765200,10.16376513671875,0.08455900102853775,0.3781290054321289,-0.15140700340270996
1714217602702412800,10.173412841796875,0.16585800051689148,0.5038779973983765,-0.19021399319171906
1714217602712060400,10.183060302734376,0.2788679897785187,0.5314319729804993,-0.2029689997434616
1714217602721707800,10.192707763671875,0.36054301261901855,0.5728150010108948,-0.20107200741767883
1714217602731355600,10.202355712890625,0.40483200550079346,0.4548510015010834,-0.1648550033569336
1714217602741003300,10.212003173828125,0.45945900678634644,0.45364299416542053,-0.057982999831438065
1714217602750650600,10.221650634765625,0.47617998719215393,0.4181410074234009,0.06856600195169449
1714217602760298200,10.23129833984375,0.4630959928035736,0.35961800813674927,0.03637799993157387
1714217602769945900,10.24094580078125,0.46667298674583435,0.39028000831604004,-0.01943800039589405
1714217602779593500,10.250593505859374,0.5359709858894348,0.4370400011539459,-0.14078499376773834
1714217602789241000,10.260240966796875,0.5136229991912842,0.43421998620033264,-0.21921299397945404
1714217602798888700,10.269888671875,0.4611090123653412,0.449427992105484,-0.227742999792099
1714217602808536000,10.2795361328125,0.41157400608062744,0.3783400058746338,-0.11032799631357193
1714217602818184000,10.289183837890626,0.3045470118522644,0.29821500182151794,-0.08330000191926956
1714217602827831600,10.29883154296875,0.267179012298584,0.23664799332618713,-0.1445460021495819
1714217602837479000,10.30847900390625,0.4590499997138977,0.17489899694919586,-0.24049800634384155
1714217602847126800,10.318126708984375,0.8145239949226379,0.15520800650119781,-0.28995001316070557
1714217602856774400,10.3277744140625,1.020158052444458,0.1479160040616989,-0.3792420029640198
1714217602866421800,10.337421875,1.0084350109100342,0.11268699914216995,-0.33913999795913696
1714217602876069400,10.3470693359375,0.9022799730300903,0.04295400157570839,-0.3558349907398224
1714217602885717000,10.356717041015624,0.699517011642456,-0.05926499888300896,-0.13610300421714783
1714217602895364600,10.366364501953125,0.6073240041732788,-0.11755599826574326,0.061402998864650726
1714217602905012200,10.37601220703125,0.5134990215301514,-0.04546999931335449,0.12415699660778046
1714217602914659800,10.385659912109375,0.4756760001182556,-0.03539299964904785,0.16742299497127533
1714217602924307500,10.395307373046874,0.3273000121116638,-0.07238399982452393,0.2117290049791336
1714217602933955000,10.404955078125,0.22146500647068024,-0.0757799968123436,0.17600500583648682
1714217602943602700,10.414602783203126,0.18213799595832825,-0.09851399809122086,0.18621300160884857
1714217602953250000,10.42425,0.2125519961118698,-0.14214499294757843,0.1956460028886795
1714217602962897700,10.433897705078126,0.1859470009803772,-0.1732500046491623,0.17967699468135834
1714217602972545500,10.443545654296875,-0.0016609999584034085,-0.17573000490665436,0.18580499291419983
1714217602982193200,10.453193115234376,-0.08297400176525116,-0.19355100393295288,0.26726099848747253
1714217602991840500,10.462840576171875,-0.17604200541973114,-0.19241200387477875,0.30761799216270447
1714217603001488100,10.472488037109375,-0.2982740104198456,-0.15576699376106262,0.24901099503040314
1714217603011135700,10.4821357421875,-0.36506301164627075,-0.13598600029945374,0.12360899895429611
1714217603020783400,10.491783447265625,-0.3371509909629822,-0.08499900251626968,-0.011587000451982021
1714217603030431000,10.501430908203124,-0.22785800695419312,-0.10035999864339828,-0.14744600653648376
1714217603040078300,10.511078369140625,-0.011618999764323235,-0.15774500370025635,-0.17569799721240997
1714217603049726000,10.520725830078124,0.21956899762153625,-0.2101210057735443,-0.10626699775457382
1714217603059373800,10.530373779296875,0.4201120138168335,-0.24416600167751312,-0.011730000376701355
1714217603069021200,10.540021240234376,0.5018240213394165,-0.23080800473690033,0.05394100025296211
1714217603078668800,10.549668701171875,0.4856860041618347,-0.20434899628162384,0.059509001672267914
1714217603088316400,10.55931640625,0.3507069945335388,-0.21161100268363953,-0.08059199899435043
1714217603097964000,10.568964111328125,0.18756000697612762,-0.1438709944486618,-0.17958499491214752
1714217603107611600,10.578611572265626,0.06733699887990952,-0.1565849930047989,-0.25950801372528076
1714217603117259300,10.58825927734375,0.014252999797463417,-0.14822599291801453,-0.21480199694633484
1714217603126907000,10.597906982421875,-0.010041000321507454,-0.14987599849700928,-0.00544800003990531
1714217603136554200,10.60755419921875,-0.06437499821186066,-0.23373599350452423,0.17560599744319916
1714217603146201900,10.617201904296875,-0.18408000469207764,-0.2357030063867569,0.2427860051393509
1714217603155849500,10.626849365234374,-0.26485198736190796,-0.20192399621009827,0.213686004281044
1714217603165497000,10.6364970703125,-0.42526501417160034,-0.30003800988197327,0.2110929936170578
1714217603175144700,10.646144775390624,-0.5072879791259766,-0.35367798805236816,0.10961899906396866
1714217603184792300,10.655792236328125,-0.572488009929657,-0.39589399099349976,0.1119460016489029
1714217603194440000,10.66543994140625,-0.546118974685669,-0.3918690085411072,0.14820200204849243
1714217603204087600,10.675087646484375,-0.5434110164642334,-0.4598599970340729,0.19450299441814423
1714217603213735200,10.684735107421876,-0.6271719932556152,-0.4640580117702484,0.2385450005531311
1714217603223382800,10.6943828125,-0.6522489786148071,-0.44773098826408386,0.3235580027103424
1714217603233030400,10.704030517578126,-0.5866450071334839,-0.42363300919532776,0.3820289969444275
1714217603242677800,10.713677734375,-0.5443339943885803,-0.4039210081100464,0.3552570044994354
1714217603252325600,10.72332568359375,-0.4377239942550659,-0.36594799160957336,0.2850629985332489
1714217603261973000,10.732972900390624,-0.3137989938259125,-0.3590640127658844,0.24719400703907013
1714217603271620600,10.74262060546875,-0.26138800382614136,-0.3352859914302826,0.18546299636363983
1714217603281268200,10.752268310546874,-0.2598229944705963,-0.3022780120372772,0.1347160041332245
1714217603290915600,10.76191552734375,-0.26059699058532715,-0.2573600113391876,0.06665399670600891
1714217603300563200,10.771563232421874,-0.31338798999786377,-0.1977750062942505,0.02915100008249283
1714217603310210800,10.7812109375,-0.42275500297546387,-0.24962300062179565,-0.019999999552965164
1714217603319858700,10.790858642578126,-0.5442569851875305,-0.2412700057029724,-0.1525219976902008
1714217603329506000,10.800506103515625,-0.3958429992198944,-0.24586699903011322,-0.13686999678611755
1714217603339153700,10.810153564453126,-0.13714599609375,-0.27172601222991943,-0.1424420028924942
1714217603348801300,10.81980126953125,0.036191001534461975,-0.3044010102748871,-0.15175999701023102
1714217603358449000,10.829448974609376,0.17197400331497192,-0.2875399887561798,-0.10307999700307846
1714217603368096500,10.839096435546875,0.24991799890995026,-0.2669129967689514,0.03635599836707115
1714217603377744000,10.848743896484375,0.3043690025806427,-0.23881299793720245,0.05512800067663193
1714217603387391700,10.858391845703125,0.12519000470638275,-0.21271300315856934,-0.04626600071787834
1714217603397039400,10.868039306640625,-0.010452999733388424,-0.1196879968047142,-0.10936599969863892
1714217603406686700,10.877686767578124,-0.024136999621987343,-0.09062899649143219,-0.05855200067162514
1714217603416334300,10.887334228515625,0.017482999712228775,-0.06634499877691269,0.04434400051832199
1714217603425982000,10.89698193359375,0.07144699990749359,-0.0646200031042099,0.21439699828624725
1714217603435629600,10.906629638671875,0.08562199771404266,-0.039629001170396805,0.2738119959831238
1714217603445277200,10.916277099609376,0.030787000432610512,-0.013013999909162521,0.29757800698280334
1714217603454924800,10.9259248046875,-0.010122000239789486,0.0005119999987073243,0.3631890118122101
1714217603464572200,10.935572265625,-0.14743900299072266,-0.0248780008405447,0.4001219868659973
1714217603474220000,10.945219970703125,-0.23033000528812408,-0.07402200251817703,0.3647899925708771
1714217603483867600,10.95486767578125,-0.2869170010089874,-0.05160899832844734,0.27347201108932495
1714217603493515300,10.964515380859375,-0.18033699691295624,-0.03893300145864487,0.22919400036334991
1714217603503162600,10.97416259765625,-0.074925996363163,-0.06098800152540207,0.13962599635124207
1714217603512810200,10.983810302734375,-0.06457100063562393,-0.04254399985074997,-0.008289000019431114
1714217603522458000,10.9934580078125,0.05359800159931183,-0.057976000010967255,-0.0178849995136261
1714217603532105500,11.00310546875,0.2537519931793213,-0.06122399866580963,-0.04393500089645386
1714217603541753000,11.012753173828125,0.31662899255752563,-0.03069699928164482,-0.044112998992204666
1714217603551400400,11.022400390625,0.3529430031776428,0.023026999086141586,-0.10363700240850449
1714217603561048300,11.03204833984375,0.44343599677085876,0.024570999667048454,-0.013539999723434448
1714217603570695700,11.04169580078125,0.4936999976634979,0.009147999808192253,0.1448259949684143
1714217603580343300,11.05134326171875,0.5163390040397644,0.022850999608635902,0.15757399797439575
1714217603589991200,11.0609912109375,0.4992449879646301,0.01754399947822094,0.12823699414730072
1714217603599638800,11.070638671875,0.5095800161361694,0.051927998661994934,0.09618200361728668
1714217603609286100,11.0802861328125,0.5069810152053833,0.09650000184774399,0.05814100056886673
1714217603618933800,11.089933837890625,0.5731729865074158,0.12325800210237503,-0.019076000899076462
1714217603628581400,11.099581298828125,0.652944028377533,0.1775590032339096,-0.04272500053048134
1714217603638228700,11.109228759765625,0.7065119743347168,0.1709129959344864,-0.07642500102519989
1714217603647876400,11.11887646484375,0.6782169938087463,0.17843900620937347,-0.07319100201129913
1714217603657524200,11.128524169921874,0.6102669835090637,0.16458599269390106,-0.06673400104045868
1714217603667171600,11.138171630859375,0.5421509742736816,0.09700900316238403,0.01839200034737587
1714217603676819200,11.147819091796874,0.40615299344062805,0.04154999926686287,-0.01923299953341484
1714217603686466800,11.157466796875,0.2297929972410202,0.036993999034166336,-0.01752699911594391
1714217603696114400,11.167114501953124,0.09486299753189087,0.05520299822092056,0.06077500060200691
1714217603705762000,11.176761962890625,0.0006719999946653843,0.006579000037163496,0.11485899984836578
1714217603715409700,11.18640966796875,-0.20200900733470917,0.021933000534772873,0.11966300010681152
1714217603725057300,11.196057373046875,-0.32328900694847107,0.04038799926638603,0.06370499730110168
1714217603734705000,11.205704833984376,-0.37553900480270386,0.03923799842596054,0.021557999774813652
1714217603744352500,11.2153525390625,-0.4696100056171417,0.017277000471949577,0.11626599729061127
1714217603754000100,11.225000244140626,-0.5221539735794067,0.017217999324202538,0.1464879959821701
1714217603763647700,11.234647705078125,-0.5483980178833008,0.037918999791145325,0.10413800179958344
1714217603773295400,11.24429541015625,-0.5323110222816467,0.07628100365400314,0.05915699899196625
1714217603782942700,11.253942626953124,-0.504315972328186,0.11226499825716019,0.058051999658346176
1714217603792590300,11.26359033203125,-0.4746200144290924,0.11028899997472763,0.015180000104010105
1714217603802238200,11.27323828125,-0.4878549873828888,0.1485079973936081,-0.0280930008739233
1714217603811885600,11.282885498046875,-0.48509299755096436,0.17191000282764435,0.022616000846028328
1714217603821533200,11.292533203125,-0.4442340135574341,0.18528400361537933,0.019811000674962997
1714217603831180500,11.3021806640625,-0.3731600046157837,0.2483689934015274,0.042027998715639114
1714217603840828200,11.311828125,-0.33261099457740784,0.2772449851036072,0.12069600075483322
1714217603850475800,11.321475830078125,-0.26169800758361816,0.3000220060348511,0.13456900417804718
1714217603860123600,11.33112353515625,-0.18082700669765472,0.31829699873924255,0.16897700726985931
1714217603869771000,11.34077099609375,-0.0015820000553503633,0.34483999013900757,0.17772799730300903
1714217603879418600,11.350418701171876,0.17427200078964233,0.4061489999294281,0.2111320048570633
1714217603889066200,11.360066162109375,0.2994140088558197,0.4309979975223541,0.1424729973077774
1714217603898713900,11.3697138671875,0.3531930148601532,0.4077950119972229,0.07096400111913681
1714217603908361500,11.379361572265625,0.34224000573158264,0.3781599998474121,0.06658200174570084
1714217603918009000,11.389009033203125,0.3149600028991699,0.3239870071411133,0.05482000112533569
1714217603927656700,11.39865673828125,0.3449769914150238,0.33492299914360046,0.04140400141477585
1714217603937304300,11.40830419921875,0.3180220127105713,0.3061020076274872,0.01623000018298626
1714217603946952000,11.417951904296874,0.3066920042037964,0.25194698572158813,0.003208999987691641
1714217603956599300,11.427599365234375,0.33435600996017456,0.30395498871803284,0.029896000400185585
1714217603966247200,11.4372470703125,0.29677700996398926,0.31234899163246155,-0.024065999314188957
1714217603975894500,11.44689453125,0.202332004904747,0.33448898792266846,-0.05067899823188782
1714217603985542100,11.456542236328126,0.16622400283813477,0.37601399421691895,-0.057711999863386154
1714217603995189800,11.466189697265625,0.09944500029087067,0.39611899852752686,-0.10655300319194794
1714217604004837400,11.47583740234375,-0.017893999814987183,0.3544830083847046,-0.18299199640750885
1714217604014485200,11.4854853515625,-0.13947300612926483,0.3085609972476959,-0.21647199988365173
1714217604024132600,11.495132568359375,-0.1370059996843338,0.17377600073814392,-0.21153999865055084
1714217604033780200,11.5047802734375,-0.08326999843120575,0.06899300217628479,-0.1690489947795868
1714217604043427800,11.514427734375,0.13405799865722656,0.11325100064277649,-0.07170700281858444
1714217604053075200,11.5240751953125,0.40462398529052734,0.17758500576019287,-0.006709999870508909
1714217604062723000,11.53372314453125,0.49958500266075134,0.2064339965581894,0.0545790009200573
1714217604072370700,11.54337060546875,0.40327998995780945,0.2116370052099228,0.06681399792432785
1714217604082018000,11.55301806640625,0.24070699512958527,0.17937199771404266,0.0635249987244606
1714217604091665700,11.562665771484374,0.19950999319553375,0.1541460007429123,0.1068670004606247
1714217604101313500,11.5723134765625,0.18601900339126587,0.08524800091981888,0.07834599912166595
1714217604110961000,11.5819609375,0.22656400501728058,0.08723700046539307,-0.013407999649643898
1714217604120608500,11.5916083984375,0.254038006067276,0.08628100156784058,-0.022414999082684517
1714217604130256100,11.601256103515626,0.17232799530029297,0.04555099830031395,-0.033333998173475266
1714217604139903700,11.61090380859375,0.07711700350046158,0.01734600029885769,0.07237699627876282
1714217604149551400,11.62055126953125,-0.08615399897098541,0.03004400059580803,0.1407500058412552
1714217604159198700,11.63019873046875,-0.2216069996356964,0.02519500069320202,0.15752199292182922
1714217604168846600,11.6398466796875,-0.27623799443244934,0.06680399924516678,0.18366000056266785
1714217604178494200,11.649494140625,-0.3027769923210144,0.06220399960875511,0.15788200497627258
1714217604188141600,11.6591416015625,-0.30369699001312256,0.09427700191736221,0.045329999178647995
1714217604197789200,11.6687890625,-0.16731500625610352,0.10648000240325928,0.07816900312900543
1714217604207436800,11.678436767578125,0.09001599997282028,0.11432799696922302,0.08897899836301804
1714217604217084400,11.68808447265625,0.22588899731636047,0.14305000007152557,0.06841599941253662
1714217604226732000,11.69773193359375,0.3338620066642761,0.13479900360107422,0.011792999692261219
1714217604236379600,11.707379638671876,0.37532898783683777,0.1723559945821762,-0.04171299934387207
1714217604246027300,11.71702734375,0.32083600759506226,0.1995529979467392,-0.05773099884390831
1714217604255674600,11.726674560546876,0.22751599550247192,0.18840399384498596,-0.05821499973535538
1714217604265322200,11.736322265625,0.11924199759960175,0.21161699295043945,-0.11859200149774551
1714217604274969900,11.745969970703126,-0.013683999888598919,0.20766399800777435,-0.2078630030155182
1714217604284617500,11.755617431640625,-0.121799997985363,0.23001499474048615,-0.28349900245666504
1714217604294265000,11.76526513671875,-0.13254299759864807,0.1605360060930252,-0.28594300150871277
1714217604303912400,11.774912353515624,-0.2273399978876114,0.10288199782371521,-0.35995298624038696
1714217604313560600,11.784560546875,-0.2531209886074066,0.05472400039434433,-0.25375300645828247
1714217604323208000,11.7942080078125,-0.19881899654865265,-0.06709200143814087,-0.2578530013561249
1714217604332855600,11.80385546875,0.0043750000186264515,-0.060513000935316086,-0.2581230103969574
1714217604342503200,11.813503173828124,0.0855180025100708,-0.12561500072479248,-0.13732300698757172
1714217604352151000,11.823151123046875,0.20556999742984772,-0.13922199606895447,-0.05501699820160866
1714217604361798400,11.83279833984375,0.2732299864292145,-0.20509900152683258,-0.044488999992609024
1714217604371446000,11.842446044921875,0.22965000569820404,-0.19050799310207367,-0.020419999957084656
1714217604381093400,11.85209326171875,0.16157400608062744,-0.21814900636672974,-0.0257750004529953
1714217604390741000,11.861740966796875,0.0234839990735054,-0.19437900185585022,-0.04272399842739105
1714217604400388600,11.871388671875,-0.1123960018157959,-0.12829700112342834,-0.03487899899482727
1714217604410036200,11.8810361328125,-0.22064700722694397,-0.03684699907898903,-0.06213200092315674
1714217604419683800,11.890683837890625,-0.3290019929409027,0.027860000729560852,-0.0912569984793663
1714217604429331500,11.90033154296875,-0.44921499490737915,0.06973499804735184,-0.08517900109291077
1714217604438979000,11.90997900390625,-0.3265109956264496,0.06918899714946747,-0.05554899945855141
1714217604448626700,11.919626708984374,-0.1496340036392212,0.0020000000949949026,0.051201000809669495
1714217604458274000,11.929274169921875,0.026619000360369682,-0.048128001391887665,0.10484299808740616
1714217604467921700,11.938921630859374,0.20133300125598907,-0.0767040029168129,0.16016000509262085
1714217604477569500,11.948569580078125,0.3638570010662079,-0.11269699782133102,0.22346700727939606
