time,seconds_elapsed,z,y,x
1711795430105320700,0.16932080078125,0.4161520004272461,0.08089199662208557,-0.003512999974191189
1711795430114969900,0.178969970703125,0.4427550137042999,0.08467700332403183,-0.003717999905347824
1711795430124619300,0.188619384765625,0.30274099111557007,0.04975799843668938,-0.0028069999534636736
1711795430134268200,0.19826806640625,0.05686299875378609,0.005878999829292297,-0.011901999823749065
1711795430143917600,0.20791748046875,-0.0650010034441948,0.004290999844670296,-0.00954500027000904
1711795430153566500,0.21756640625,-0.1318800002336502,-0.030764000490307808,-0.010716999880969524
1711795430163216000,0.2272158203125,-0.22184599936008453,-0.029513999819755554,-0.02888300083577633
1711795430172865000,0.236864990234375,-0.3034430146217346,-0.07168500125408173,-0.08584000170230865
1711795430182514200,0.24651416015625,-0.26285600662231445,-0.11151900142431259,-0.07377500087022781
1711795430192163600,0.25616357421875,-0.2226559966802597,-0.12183000147342682,-0.14242500066757202
1711795430201812700,0.265812744140625,-0.046640001237392426,-0.18461699783802032,-0.15673500299453735
1711795430211462000,0.2754619140625,0.08815400302410126,-0.16449899971485138,-0.010383999906480312
1711795430221111000,0.285111083984375,0.14125099778175354,-0.1996150016784668,0.09261800348758698
1711795430230760200,0.29476025390625,0.16750599443912506,-0.16884300112724304,0.08611299842596054
1711795430240409600,0.30440966796875,0.13989000022411346,-0.1544789969921112,0.013159999623894691
1711795430250058800,0.314058837890625,-0.009697999805212021,-0.14259199798107147,-0.016009999439120293
1711795430259708000,0.3237080078125,-0.14532199501991272,-0.10461899638175964,0.025536000728607178
1711795430269357000,0.333357177734375,-0.30857500433921814,-0.07747399806976318,-0.011711000464856625
1711795430279006500,0.34300634765625,-0.3136259913444519,-0.04136199876666069,-0.004782000090926886
1711795430288655400,0.3526552734375,-0.002032000105828047,-0.04507699981331825,-0.0017729999963194132
1711795430298304500,0.362304443359375,0.2140520066022873,-0.021429000422358513,0.03912299871444702
1711795430307953700,0.37195361328125,0.21041099727153778,-0.12382899969816208,-0.06917300075292587
1711795430317602800,0.381602783203125,0.23580299317836761,-0.12848900258541107,-0.23706600069999695
1711795430327252200,0.391252197265625,0.09714099764823914,-0.16544899344444275,-0.2513189911842346
1711795430336901400,0.4009013671875,0.05558200180530548,-0.13356100022792816,-0.08543500304222107
1711795430346550500,0.410550537109375,-0.2842710018157959,0.08987999707460403,0.2672869861125946
1711795430356200000,0.420199951171875,-0.12105300277471542,0.13270199298858643,0.3377699851989746
1711795430365848800,0.429848876953125,-0.13417699933052063,0.14055800437927246,0.20481500029563904
1711795430375498000,0.439498046875,0.014384999871253967,-0.01591400057077408,0.3543109893798828
1711795430385147400,0.4491474609375,0.256507009267807,-0.0038560000248253345,0.25450199842453003
1711795430394796500,0.458796630859375,0.48660001158714294,-0.050905000418424606,0.1154320016503334
1711795430404445700,0.46844580078125,0.4710420072078705,-0.026843000203371048,-0.009321999736130238
1711795430414094800,0.4780947265625,0.29381901025772095,-0.026270000264048576,-0.02413100004196167
1711795430423744300,0.487744140625,0.035030998289585114,-0.026877999305725098,0.04173700138926506
1711795430433393400,0.497393310546875,-0.20963700115680695,0.011416000314056873,0.13807299733161926
1711795430443042600,0.50704248046875,-0.4127959907054901,0.05664300173521042,0.1824759989976883
1711795430452691700,0.516691650390625,-0.2497750073671341,-0.049543000757694244,0.18385300040245056
1711795430462340900,0.5263408203125,0.061475999653339386,-0.0645499974489212,-0.004118000157177448
1711795430471990300,0.535990234375,0.19635599851608276,-0.042725998908281326,-0.015503999777138233
1711795430481639400,0.545639404296875,0.1540900021791458,-0.0070050000213086605,-0.0005339999916031957
1711795430491288600,0.55528857421875,0.08531399816274643,-0.0027650000993162394,0.0687670037150383
1711795430500937700,0.564937744140625,0.1122409999370575,0.038137998431921005,0.08958999812602997
1711795430510587000,0.5745869140625,-0.03758800029754639,0.037321001291275024,0.11371000111103058
1711795430520235800,0.58423583984375,-0.3492319881916046,0.08036600053310394,0.06523299962282181
1711795430529885200,0.59388525390625,-0.5124520063400269,0.06461899727582932,0.03483499959111214
1711795430539534600,0.60353466796875,-0.5114700198173523,0.004753999877721071,0.008554000407457352
1711795430549183700,0.613183837890625,-0.28046199679374695,-0.018658999353647232,-0.12484399974346161
1711795430558833200,0.622833251953125,0.2354229986667633,-0.04711500182747841,-0.0740870013833046
1711795430568482000,0.63248193359375,0.4389289915561676,-0.040417999029159546,-0.12111800163984299
1711795430578131200,0.642131103515625,0.34220099449157715,-0.01723499968647957,-0.02050900086760521
1711795430587780400,0.6517802734375,0.1780339926481247,0.000830999983008951,0.0483740009367466
1711795430597429800,0.6614296875,0.054499998688697815,0.017875999212265015,0.05438400059938431
1711795430607078700,0.67107861328125,-0.0010849999962374568,0.06313800066709518,0.019641999155282974
1711795430616727800,0.680727783203125,-0.08296400308609009,0.06232399865984917,-0.013902000151574612
1711795430626377000,0.690376953125,-0.05636100098490715,0.06504199653863907,-0.03133000060915947
1711795430636026400,0.7000263671875,-0.0017350000562146306,0.037067998200654984,-0.01727999933063984
1711795430645675500,0.709675537109375,-0.029164999723434448,0.07868900150060654,0.022281000390648842
1711795430655324700,0.71932470703125,-0.15033000707626343,0.16320599615573883,0.053863998502492905
1711795430664973800,0.728973876953125,-0.36927300691604614,0.17989900708198547,0.05638600140810013
1711795430674623000,0.738623046875,-0.5724920034408569,0.16947700083255768,0.06749100238084793
1711795430684272000,0.748272216796875,-0.5749790072441101,0.1674180030822754,0.014313999563455582
1711795430693921300,0.75792138671875,-0.4399319887161255,0.11757799983024597,0.018849000334739685
1711795430703570400,0.7675703125,-0.32079100608825684,0.09619399905204773,0.028537999838590622
1711795430713219600,0.777219482421875,0.0574829988181591,0.04686399921774864,0.015728000551462173
1711795430722869000,0.786868896484375,0.4494459927082062,0.039115000516176224,-0.0341930016875267
1711795430732518100,0.79651806640625,0.595645010471344,-0.019816000014543533,0.008564000017940998
1711795430742167300,0.806167236328125,0.5531899929046631,-0.0909620001912117,0.051979999989271164
1711795430751816400,0.81581640625,0.45533499121665955,-0.10331899672746658,0.07568799704313278
1711795430761465600,0.825465576171875,0.21010200679302216,-0.11652400344610214,0.03480200096964836
1711795430771114800,0.83511474609375,-0.11631900072097778,-0.010463000275194645,-0.03314099833369255
1711795430780764200,0.84476416015625,-0.38871100544929504,0.0564580000936985,0.017026999965310097
1711795430790413300,0.854413330078125,-0.5513560175895691,0.03610900044441223,0.050992999225854874
1711795430800062700,0.864062744140625,-0.4025940001010895,0.06915900111198425,0.006599000189453363
1711795430809711900,0.8737119140625,-0.32129600644111633,0.05866299942135811,-0.03240500018000603
1711795430819361000,0.883361083984375,-0.28216099739074707,0.04292299970984459,-0.043678998947143555
1711795430829010200,0.89301025390625,-0.1880130022764206,0.02413799986243248,0.04141100123524666
1711795430838659300,0.902659423828125,-0.053144000470638275,0.0480710007250309,-0.0879179984331131
1711795430848308500,0.91230859375,0.08369699865579605,0.13033799827098846,-0.17927800118923187
1711795430857957600,0.92195751953125,0.1785469949245453,0.10729499906301498,-0.1891150027513504
1711795430867607000,0.93160693359375,0.2072490006685257,0.14222800731658936,-0.20378099381923676
1711795430877256200,0.941256103515625,0.20767199993133545,0.19363699853420258,-0.23231300711631775
1711795430886905300,0.9509052734375,0.06067899987101555,0.15191000699996948,-0.2468169927597046
1711795430896554200,0.96055419921875,-0.1423880010843277,0.11659300327301025,-0.17955900728702545
1711795430906203600,0.97020361328125,-0.316554993391037,0.07412499934434891,-0.15546099841594696
1711795430915852800,0.979852783203125,-0.5200480222702026,0.06910300254821777,-0.18254199624061584
1711795430925502000,0.989501953125,-0.6814619898796082,0.03244199976325035,-0.13060599565505981
1711795430935151000,0.999151123046875,-0.6007530093193054,0.03887899965047836,-0.22542700171470642
1711795430944800500,1.008800537109375,-0.368476003408432,0.14791500568389893,-0.20993700623512268
1711795430954449700,1.01844970703125,-0.030579999089241028,0.17869700491428375,-0.2617399990558624
1711795430964098800,1.028098876953125,0.28102898597717285,0.12520499527454376,-0.1668889969587326
1711795430973748200,1.037748291015625,0.6464459896087646,0.11480899900197983,-0.09275999665260315
1711795430983397400,1.0473974609375,0.9855319857597351,0.15378600358963013,-0.08503899723291397
1711795430993046300,1.05704638671875,1.0666320323944092,0.21335600316524506,-0.10916700214147568
1711795431002695400,1.0666953125,0.7690439820289612,0.29648301005363464,-0.16034699976444244
1711795431012344800,1.0763447265625,0.3744499981403351,0.45376598834991455,-0.1711840033531189
1711795431021994000,1.085993896484375,-0.0148930000141263,0.4969179928302765,-0.11175599694252014
1711795431031643100,1.09564306640625,-0.24604399502277374,0.6124929785728455,-0.11281099915504456
1711795431041292300,1.105292236328125,-0.265841007232666,0.647068977355957,-0.07696499675512314
1711795431050941400,1.11494140625,-0.22483299672603607,0.6040719747543335,-0.04040199890732765
1711795431060590800,1.1245908203125,-0.12404599785804749,0.5446810126304626,-0.011959999799728394
1711795431070239700,1.13423974609375,-0.0701650008559227,0.5352879762649536,-0.05047399923205376
1711795431079889200,1.14388916015625,-0.03910699859261513,0.4737739861011505,-0.0849900022149086
1711795431089538300,1.153538330078125,-0.013801000081002712,0.47116100788116455,-0.15428200364112854
1711795431099187500,1.1631875,0.20608900487422943,0.4474410116672516,-0.12207599729299545
1711795431108836600,1.172836669921875,0.4623909890651703,0.40711599588394165,-0.16447900235652924
1711795431118485800,1.18248583984375,0.5991969704627991,0.37740299105644226,-0.13351400196552277
1711795431128135000,1.192135009765625,0.6658449769020081,0.3308190107345581,-0.04054199904203415
1711795431137784000,1.2017841796875,0.7212460041046143,0.2967909872531891,-0.031585000455379486
1711795431147433500,1.21143359375,0.5714250206947327,0.3761799931526184,-0.12139800190925598
1711795431157082600,1.22108251953125,0.28998199105262756,0.3901129961013794,-0.17641699314117432
1711795431166731800,1.230731689453125,0.03227600082755089,0.42166098952293396,-0.1740099936723709
1711795431176380700,1.240380615234375,-0.17861999571323395,0.46336400508880615,-0.174127995967865
1711795431186029800,1.25002978515625,-0.42277899384498596,0.5092800259590149,-0.19898700714111328
1711795431195679200,1.25967919921875,-0.5649750232696533,0.48031699657440186,-0.11908800154924393
1711795431205328400,1.269328369140625,-0.5102999806404114,0.4907189905643463,-0.11427299678325653
1711795431214977500,1.2789775390625,-0.2732189893722534,0.4472639858722687,-0.11411099880933762
1711795431224626700,1.288626708984375,-0.16461800038814545,0.447735995054245,-0.0658160001039505
1711795431234276000,1.298276123046875,-0.03757200017571449,0.3830359876155853,-0.06631799787282944
1711795431243925000,1.307925048828125,0.08576499670743942,0.37821701169013977,-0.01547400001436472
1711795431253574100,1.31757421875,0.10465099662542343,0.3502660095691681,-0.04466500133275986
1711795431263223600,1.3272236328125,-0.015766000375151634,0.36508798599243164,-0.10469300299882889
1711795431272872700,1.336872802734375,-0.1708420068025589,0.4317319989204407,-0.13078700006008148
1711795431282521900,1.34652197265625,-0.2775779962539673,0.4866139888763428,-0.15405699610710144
1711795431292171000,1.3561708984375,-0.29636698961257935,0.4845229983329773,-0.09193500131368637
1711795431301820400,1.3658203125,-0.3364120125770569,0.49166300892829895,-0.022828999906778336
1711795431311469600,1.375469482421875,-0.2345229983329773,0.4584070146083832,-0.018045000731945038
1711795431321118700,1.38511865234375,-0.002749999985098839,0.47010499238967896,-0.022523999214172363
1711795431330768000,1.394767822265625,0.19273699820041656,0.4069089889526367,-0.04726700112223625
1711795431340417000,1.4044169921875,0.2481060028076172,0.3896409869194031,-0.09882800281047821
1711795431350066200,1.414066162109375,0.22737599909305573,0.43001899123191833,-0.17965500056743622
1711795431359715600,1.423715576171875,0.24288100004196167,0.42196598649024963,-0.1624390035867691
1711795431369364700,1.43336474609375,0.10073400288820267,0.4434089958667755,-0.17838600277900696
1711795431379014000,1.443013916015625,0.08890800178050995,0.4351379871368408,-0.1926410049200058
1711795431388663000,1.4526630859375,0.20382200181484222,0.38235700130462646,-0.14531899988651276
1711795431398312200,1.462312255859375,0.35489800572395325,0.28133898973464966,-0.14571599662303925
1711795431407961300,1.47196142578125,0.6028800010681152,0.2566309869289398,-0.13828399777412415
1711795431417610800,1.48161083984375,0.7405760288238525,0.18227800726890564,-0.12284299731254578
1711795431427260000,1.491260009765625,0.9049839973449707,0.12464699894189835,-0.11717099696397781
1711795431436908800,1.50090869140625,1.1798110008239746,0.1274300068616867,-0.15894100069999695
1711795431446558200,1.51055810546875,1.3181140422821045,0.17338599264621735,-0.20997300744056702
1711795431456207600,1.52020751953125,1.2409110069274902,0.24724499881267548,-0.15119899809360504
1711795431465856800,1.529856689453125,0.82396000623703,0.15352000296115875,-0.0033209999091923237
1711795431475506000,1.539505859375,0.34033700823783875,-0.000028000000384054147,0.10536299645900726
1711795431485154800,1.54915478515625,0.005053999833762646,-0.09266100078821182,0.06258700042963028
1711795431494804200,1.55880419921875,-0.16608400642871857,-0.03676899895071983,0.0002390000008745119
1711795431504453400,1.568453369140625,-0.07892999798059464,0.022576000541448593,-0.014065000228583813
1711795431514102500,1.5781025390625,-0.00750999990850687,-0.07187700271606445,0.018007999286055565
1711795431523751400,1.58775146484375,0.1811559945344925,-0.2247679978609085,-0.03560600057244301
1711795431533400800,1.59740087890625,0.4273679852485657,-0.43026700615882874,-0.08558999747037888
1711795431543050000,1.607050048828125,0.6627879738807678,-0.5636979937553406,-0.03849099949002266
1711795431552699100,1.61669921875,0.7851459980010986,-0.7094320058822632,-0.021788999438285828
1711795431562348300,1.626348388671875,1.0438690185546875,-0.7987250089645386,-0.062212999910116196
1711795431571997700,1.635997802734375,1.5611419677734375,-0.8233649730682373,-0.12391100078821182
1711795431581646800,1.645646728515625,1.6564420461654663,-0.8593569993972778,-0.055945999920368195
1711795431591295700,1.655295654296875,1.5911439657211304,-0.9540050029754639,0.00929300021380186
1711795431600945200,1.664945068359375,1.1875009536743164,-0.8636159896850586,0.06627099961042404
1711795431610594300,1.67459423828125,0.8400480151176453,-0.853738009929657,0.12736700475215912
1711795431620243500,1.684243408203125,0.34445899724960327,-0.8480299711227417,0.121567003428936
1711795431629892600,1.693892578125,0.2691609859466553,-0.933791995048523,0.10572099685668945
1711795431639542000,1.7035419921875,0.11282800137996674,-0.8553360104560852,0.12099199742078781
1711795431649191200,1.713191162109375,0.22644899785518646,-0.9333959817886353,0.23894399404525757
1711795431658840000,1.722840087890625,0.4074989855289459,-0.9105889797210693,0.32326599955558777
1711795431668489700,1.73248974609375,0.5749480128288269,-1.0260859727859497,0.5108820199966431
1711795431678139000,1.742138916015625,0.3723059892654419,-1.0890949964523315,0.645209014415741
1711795431687787800,1.751787841796875,0.13189099729061127,-1.180156946182251,0.7530760169029236
1711795431697437200,1.761437255859375,-0.19378499686717987,-1.239266037940979,0.7983229756355286
1711795431707086300,1.77108642578125,-0.48908698558807373,-1.2870789766311646,0.7878469824790955
1711795431716735500,1.780735595703125,-0.7320709824562073,-1.1834670305252075,0.6433730125427246
1711795431726384600,1.790384521484375,-0.947721004486084,-1.0714969635009766,0.4916749894618988
1711795431736033800,1.80003369140625,-0.8611209988594055,-0.8953710198402405,0.3535340130329132
1711795431745683000,1.809682861328125,-0.8062940239906311,-0.923442006111145,0.2739180028438568
1711795431755332000,1.81933203125,-0.6682389974594116,-0.9352009892463684,0.2777470052242279
1711795431764981200,1.828981201171875,-0.3704470098018646,-0.9927809834480286,0.328685998916626
1711795431774630700,1.838630615234375,-0.13919800519943237,-0.937125027179718,0.30527299642562866
1711795431784279800,1.84827978515625,0.008030000142753124,-0.9631149768829346,0.31294599175453186
1711795431793928700,1.8579287109375,0.1448339968919754,-0.8951539993286133,0.24929200112819672
1711795431803578000,1.867578125,0.0066269999369978905,-0.8011729717254639,0.21152199804782867
1711795431813227300,1.877227294921875,-0.1663299947977066,-0.7090880274772644,0.2776489853858948
1711795431822876400,1.88687646484375,-0.22237800061702728,-0.6168980002403259,0.28094300627708435
1711795431832525600,1.896525634765625,-0.24211600422859192,-0.44582399725914,0.20560699701309204
1711795431842174700,1.9061748046875,-0.2985509932041168,-0.3778670132160187,0.15662099421024323
1711795431851824000,1.91582421875,-0.2765670120716095,-0.31817400455474854,0.0641620010137558
1711795431861473000,1.92547314453125,-0.26567500829696655,-0.2721019983291626,0.0017290000105276704
1711795431871122200,1.9351220703125,-0.2164430022239685,-0.2386389970779419,0.04336800053715706
1711795431880771600,1.944771484375,-0.015786999836564064,-0.2009110003709793,0.0824510008096695
1711795431890420700,1.954420654296875,0.047015998512506485,-0.11374899744987488,0.06947600096464157
1711795431900070000,1.96406982421875,0.09738700091838837,-0.12875300645828247,0.11084199696779251
1711795431909719000,1.973718994140625,0.3104979991912842,-0.04501400142908096,0.08933299779891968
1711795431919368400,1.983368408203125,0.4296950101852417,0.12594300508499146,0.030223999172449112
1711795431929017600,1.993017578125,0.41463398933410645,0.18872800469398499,-0.0032480000518262386
1711795431938666500,2.00266650390625,0.33109501004219055,0.2540830075740814,0.004182000178843737
1711795431948316000,2.01231591796875,0.19724799692630768,0.3878740072250366,-0.06671299785375595
1711795431957965000,2.021965087890625,-0.04843899980187416,0.44425100088119507,-0.07552800327539444
1711795431967614200,2.0316142578125,-0.46619001030921936,0.41353198885917664,-0.03087799996137619
1711795431977263400,2.041263427734375,-0.8480079770088196,0.3597320020198822,0.05033399909734726
1711795431986912500,2.05091259765625,-1.0074360370635986,0.3308520019054413,0.14965200424194336
1711795431996561700,2.060561767578125,-0.9408180117607117,0.2977989912033081,0.23284900188446045
1711795432006211000,2.070211181640625,-0.8166390061378479,0.2712459862232208,0.2220660001039505
1711795432015860000,2.07985986328125,-0.7649250030517578,0.31513500213623047,0.2005770057439804
1711795432025509400,2.08950927734375,-0.682083010673523,0.3067820072174072,0.1607699990272522
1711795432035158500,2.099158447265625,-0.49417901039123535,0.3519519865512848,0.14962999522686005
1711795432044807700,2.1088076171875,-0.3158229887485504,0.3571679890155792,0.12080100178718567
1711795432054457000,2.11845703125,-0.26344698667526245,0.3304550051689148,0.08679500222206116
1711795432064106000,2.12810595703125,-0.2622460126876831,0.2688550055027008,0.03784399852156639
1711795432073755100,2.137755126953125,-0.1273149996995926,0.27785399556159973,-0.06338799744844437
1711795432083404500,2.147404541015625,-0.15255899727344513,0.27981600165367126,-0.06711000204086304
1711795432093053700,2.1570537109375,-0.42575401067733765,0.244268000125885,0.016950000077486038
1711795432102702800,2.166702880859375,-0.5451629757881165,0.3056209981441498,0.05630199983716011
1711795432112352000,2.17635205078125,-0.5187829732894897,0.44768598675727844,-0.03555100038647652
1711795432122001400,2.18600146484375,-0.5412350296974182,0.48666900396347046,-0.027670999988913536
1711795432131650300,2.195650390625,-0.4471830129623413,0.4547150135040283,0.0064559997990727425
1711795432141299500,2.205299560546875,-0.30755800008773804,0.44857099652290344,-0.050126999616622925
1711795432150948900,2.214948974609375,-0.14563299715518951,0.4182470142841339,-0.08274299651384354
1711795432160598000,2.224597900390625,-0.006845999974757433,0.40460601449012756,-0.14814400672912598
1711795432170247200,2.2342470703125,0.16879500448703766,0.48194900155067444,-0.1859930008649826
1711795432179896300,2.243896240234375,0.15883199870586395,0.5153020024299622,-0.20418600738048553
1711795432189545700,2.253545654296875,0.0488010011613369,0.5615910291671753,-0.18419300019741058
1711795432199195000,2.26319482421875,-0.09555800259113312,0.5830240249633789,-0.16975000500679016
1711795432208844000,2.272843994140625,-0.1913370043039322,0.6251609921455383,-0.15176400542259216
1711795432218493400,2.282493408203125,-0.048994001001119614,0.6291499733924866,-0.08648200333118439
1711795432228142300,2.292142333984375,0.1416269987821579,0.5878310203552246,0.016412999480962753
1711795432237791500,2.30179150390625,0.310824990272522,0.6217439770698547,-0.0030070000793784857
1711795432247440600,2.311440673828125,0.31130900979042053,0.6318010091781616,0.04526999965310097
1711795432257089800,2.32108984375,0.2491600066423416,0.5957249999046326,0.16183100640773773
1711795432266739000,2.330739013671875,0.11344599723815918,0.6734359860420227,0.12259399890899658
1711795432276388400,2.340388427734375,0.08038400113582611,0.7238019704818726,0.1029520034790039
1711795432286037200,2.350037353515625,-0.0011699999449774623,0.7216600179672241,0.17022499442100525
1711795432295686700,2.359686767578125,0.08765599876642227,0.6952059864997864,0.1859779953956604
1711795432305335800,2.369335693359375,0.19661499559879303,0.7217040061950684,0.18720200657844543
1711795432314985000,2.37898486328125,0.3936989903450012,0.6732280254364014,0.19210900366306305
1711795432324634000,2.388634033203125,0.5851039886474609,0.5873479843139648,0.2098499983549118
1711795432334283500,2.398283447265625,0.8486620187759399,0.521094024181366,0.2149530053138733
1711795432343932400,2.407932373046875,0.8913419842720032,0.48423200845718384,0.17446300387382507
1711795432353581600,2.41758154296875,0.8288339972496033,0.4692020118236542,0.12398099899291992
1711795432363230700,2.427230712890625,0.8181890249252319,0.4406369924545288,0.10497500002384186
1711795432372880000,2.4368798828125,0.634672999382019,0.44629499316215515,0.06773000210523605
1711795432382529300,2.446529296875,0.4211220145225525,0.47983700037002563,0.04972599819302559
1711795432392178400,2.456178466796875,0.3356870114803314,0.4737919867038727,0.047237999737262726
1711795432401827600,2.46582763671875,0.28684601187705994,0.35227999091148376,-0.015881000086665154
1711795432411476700,2.475476806640625,0.6595680117607117,0.12493199855089188,-0.05615999922156334
1711795432421126000,2.4851259765625,0.8284940123558044,0.018157999962568283,-0.07064300030469894
1711795432430775000,2.494775146484375,1.1034409999847412,0.006500000134110451,-0.06629999727010727
1711795432440424400,2.504424560546875,1.3136459589004517,-0.020086999982595444,-0.06310199946165085
1711795432450073600,2.514073486328125,1.3281919956207275,-0.1608079969882965,-0.1569489985704422
1711795432459722800,2.52372265625,1.1037299633026123,-0.3965350091457367,-0.3413090109825134
1711795432469372200,2.5333720703125,0.7885450124740601,-0.5246859788894653,-0.4200969934463501
1711795432479021300,2.543021240234375,0.49541398882865906,-0.7030109763145447,-0.41685599088668823
1711795432488670200,2.552670166015625,0.24274399876594543,-0.8880910277366638,-0.3152109980583191
1711795432498319600,2.562319580078125,0.13700400292873383,-1.0520789623260498,-0.24659299850463867
1711795432507968800,2.57196875,0.16266199946403503,-1.1750609874725342,-0.028510000556707382
1711795432517618000,2.581617919921875,0.4066599905490875,-1.3876880407333374,0.06638400256633759
1711795432527267000,2.59126708984375,0.618166983127594,-1.3082040548324585,0.04945100098848343
1711795432536916500,2.60091650390625,0.6832360029220581,-1.320950984954834,-0.09860599786043167
1711795432546565400,2.6105654296875,0.8000460267066956,-1.3207789659500122,-0.16466599702835083
1711795432556214500,2.620214599609375,0.9203619956970215,-1.3636679649353027,-0.15727399289608002
1711795432565864000,2.629864013671875,0.8891270160675049,-1.3398679494857788,-0.02721799910068512
1711795432575513000,2.63951318359375,0.8062589764595032,-1.333611011505127,0.10034599900245667
1711795432585162200,2.649162353515625,0.7652000188827515,-1.1627960205078125,0.24939200282096863
1711795432594811400,2.658811279296875,0.4516339898109436,-1.1067219972610474,0.35357800126075745
1711795432604460800,2.668460693359375,0.14137299358844757,-1.0053819417953491,0.3376010060310364
1711795432614110000,2.67810986328125,0.12790599465370178,-0.9517369866371155,0.3130300045013428
1711795432623758800,2.6877587890625,-0.0024590000975877047,-0.8100299835205078,0.22054800391197205
1711795432633408300,2.697408203125,-0.029214000329375267,-0.8399800062179565,0.18546999990940094
1711795432643057400,2.707057373046875,-0.2125529944896698,-0.7199689745903015,0.10863500088453293
1711795432652706600,2.71670654296875,-0.23908700048923492,-0.6699889898300171,0.03215700015425682
1711795432662355700,2.726355712890625,-0.2576960027217865,-0.6259350180625916,-0.02202099934220314
1711795432672004900,2.7360048828125,-0.17510400712490082,-0.5635370016098022,-0.04694100096821785
1711795432681654300,2.745654296875,-0.1781260073184967,-0.44940900802612305,-0.1318259984254837
1711795432691303400,2.755303466796875,-0.31326401233673096,-0.33344000577926636,-0.28351500630378723
1711795432700952800,2.764952880859375,-0.5042250156402588,-0.23564399778842926,-0.37233099341392517
1711795432710602000,2.77460205078125,-0.6666820049285889,-0.20072899758815765,-0.3519429862499237
1711795432720251000,2.7842509765625,-0.7482519745826721,-0.18685799837112427,-0.32530900835990906
1711795432729900300,2.793900390625,-0.8162140250205994,-0.14672599732875824,-0.3225950002670288
1711795432739549400,2.803549560546875,-0.8842350244522095,-0.11872299760580063,-0.288565993309021
1711795432749198600,2.813198486328125,-0.8307589888572693,-0.09896499663591385,-0.19558799266815186
1711795432758847700,2.82284765625,-0.7638090252876282,-0.07811400294303894,-0.11409900337457657
1711795432768497200,2.8324970703125,-0.7115309834480286,-0.07862500101327896,-0.10033100098371506
1711795432778146000,2.84214599609375,-0.6723309755325317,-0.027494000270962715,-0.1605609953403473
1711795432787795200,2.851795166015625,-0.6887869834899902,0.003495000069960952,-0.19240500032901764
1711795432797444600,2.861444580078125,-0.554768979549408,-0.009677000343799591,-0.169064000248909
1711795432807093800,2.87109375,-0.24449500441551208,-0.05842300131917,-0.1786399930715561
1711795432816743000,2.880742919921875,-0.016301000490784645,-0.0495310015976429,-0.13519300520420074
1711795432826392000,2.89039208984375,0.1444150060415268,-0.05840599909424782,-0.030052000656723976
1711795432836041200,2.900041259765625,0.22279299795627594,-0.06299000233411789,0.08123700320720673
1711795432845690400,2.9096904296875,0.19335000216960907,-0.034223999828100204,0.09901999682188034
1711795432855339500,2.919339599609375,0.16475999355316162,0.07039099931716919,0.004424999933689833
1711795432864988700,2.92898876953125,0.09525900334119797,0.12106899917125702,-0.07968900352716446
1711795432874637800,2.938637939453125,-0.05395999923348427,0.17125600576400757,-0.19202500581741333
1711795432884287000,2.948286865234375,-0.17715099453926086,0.27100101113319397,-0.2599659860134125
1711795432893936000,2.95793603515625,-0.3375929892063141,0.3178580105304718,-0.1892620027065277
1711795432903585300,2.967585205078125,-0.4602920114994049,0.3459550142288208,-0.08401399850845337
1711795432913234700,2.977234619140625,-0.4162749946117401,0.31036901473999023,-0.0028389999642968178
1711795432922883800,2.9868837890625,-0.48469600081443787,0.35343098640441895,0.07922100275754929
1711795432932533200,2.996533203125,-0.6175709962844849,0.3171049952507019,0.09855899959802628
1711795432942182400,3.006182373046875,-0.6591060161590576,0.3489750027656555,0.0958930030465126
1711795432951831600,3.01583154296875,-0.6958680152893066,0.4167099893093109,0.009696000255644321
1711795432961480700,3.025480712890625,-0.710677981376648,0.5201470255851746,-0.07689300179481506
1711795432971129600,3.035129638671875,-0.6111770272254944,0.5059880018234253,-0.11496400088071823
1711795432980779000,3.044779052734375,-0.5039950013160706,0.5179110169410706,-0.14718599617481232
1711795432990428200,3.05442822265625,-0.3510870039463043,0.497435986995697,-0.14345000684261322
1711795433000077300,3.064077392578125,-0.21691299974918365,0.4973610043525696,-0.12242600321769714
1711795433009726700,3.073726806640625,-0.037011999636888504,0.5060139894485474,-0.070762999355793
1711795433019375900,3.0833759765625,0.09792699664831161,0.46004900336265564,-0.05093200132250786
1711795433029025000,3.09302490234375,0.08707299828529358,0.40127500891685486,-0.05560100078582764
1711795433038674200,3.102674072265625,-0.02201100066304207,0.4160439968109131,-0.0644029974937439
1711795433048323300,3.1123232421875,-0.1401659995317459,0.4286330044269562,-0.06978300213813782
1711795433057972500,3.121972412109375,-0.24896599352359772,0.5097929835319519,-0.10669700056314468
1711795433067622000,3.131621826171875,-0.27048400044441223,0.5418490171432495,-0.10675899684429169
1711795433077270800,3.141270751953125,-0.22971199452877045,0.5834199786186218,-0.1504479944705963
1711795433086920200,3.150920166015625,-0.07416199892759323,0.6024320125579834,-0.07804200053215027
1711795433096569300,3.1605693359375,0.07555899769067764,0.6711199879646301,0.004443999845534563
1711795433106218500,3.170218505859375,0.10924500226974487,0.6597480177879333,0.04253799840807915
1711795433115868000,3.179867919921875,0.21879799664020538,0.6836069822311401,0.05384400114417076
1711795433125517000,3.18951708984375,0.1848669946193695,0.6434999704360962,0.03171899914741516
1711795433135166000,3.199166015625,0.0361890010535717,0.6238840222358704,-0.006144000217318535
1711795433144815400,3.2088154296875,-0.010619999840855598,0.6215739846229553,-0.053943999111652374
1711795433154464500,3.218464599609375,-0.009436000138521194,0.6836280226707458,-0.10362599790096283
1711795433164113700,3.22811376953125,0.025502000004053116,0.6413469910621643,-0.052181001752614975
1711795433173762800,3.2377626953125,0.08084099739789963,0.5823490023612976,0.0409340001642704
1711795433183412000,3.247411865234375,0.19597800076007843,0.5491600036621094,0.04013900086283684
1711795433193061400,3.257061279296875,0.4828389883041382,0.5580719709396362,-0.023972999304533005
1711795433202710300,3.266710205078125,0.5158929824829102,0.5542510151863098,-0.04469899833202362
1711795433212359700,3.276359619140625,0.49003198742866516,0.5742260217666626,-0.09805899858474731
1711795433222008800,3.2860087890625,0.44262900948524475,0.5917930006980896,-0.14473499357700348
1711795433231658000,3.295657958984375,0.2809619903564453,0.5965539813041687,-0.2161249965429306
1711795433241307100,3.30530712890625,0.15238100290298462,0.5578839778900146,-0.18150800466537476
1711795433250956500,3.31495654296875,0.15386900305747986,0.5505920052528381,-0.11508999764919281
1711795433260605700,3.324605712890625,0.32406699657440186,0.5578879714012146,-0.1335819959640503
1711795433270254800,3.3342548828125,0.5839539766311646,0.6069329977035522,-0.18597500026226044
1711795433279904000,3.343904052734375,0.8078020215034485,0.6050779819488525,-0.2125129997730255
1711795433289553400,3.353553466796875,0.9320530295372009,0.6924790143966675,-0.25363901257514954
1711795433299202600,3.36320263671875,0.9545959830284119,0.7726579904556274,-0.26826098561286926
1711795433308851700,3.372851806640625,0.8900740146636963,0.797078013420105,-0.1638289988040924
1711795433318500900,3.3825009765625,0.7770789861679077,0.6443079710006714,-0.13537800312042236
1711795433328150000,3.39214990234375,0.6043540239334106,0.48889100551605225,-0.26633599400520325
1711795433337799400,3.40179931640625,0.4878630042076111,0.32514700293540955,-0.3874799907207489
1711795433347448600,3.411448486328125,0.47704100608825684,0.2721630036830902,-0.44841301441192627
1711795433357097700,3.42109765625,0.615971028804779,0.23244500160217285,-0.41320499777793884
1711795433366747000,3.430746826171875,0.8213009834289551,0.0236239992082119,-0.36983099579811096
1711795433376396000,3.44039599609375,0.992592990398407,-0.23750700056552887,-0.3963620066642761
1711795433386045200,3.450045166015625,1.1563119888305664,-0.36133700609207153,-0.5383009910583496
1711795433395694300,3.4596943359375,1.2709779739379883,-0.4621169865131378,-0.6044279932975769
1711795433405343500,3.469343505859375,1.2457979917526245,-0.6209700107574463,-0.7586010098457336
1711795433414993000,3.478992919921875,1.1683039665222168,-0.8085790276527405,-0.7911620140075684
1711795433424642000,3.48864208984375,1.2675800323486328,-1.030750036239624,-0.7509030103683472
1711795433434291000,3.498291015625,1.2685710191726685,-1.2179540395736694,-0.25813499093055725
1711795433443940400,3.5079404296875,0.9743559956550598,-1.4207990169525146,0.5155150294303894
1711795433453589500,3.517589599609375,0.5130079984664917,-1.326238989830017,0.9502080082893372
1711795433463238700,3.52723876953125,0.15054799616336823,-1.0919920206069946,1.0169399976730347
1711795433472887800,3.5368876953125,-0.20961500704288483,-0.9110829830169678,0.7608039975166321
1711795433482537000,3.546536865234375,-0.5467979907989502,-0.7477570176124573,0.6887710094451904
1711795433492186400,3.556186279296875,-0.631147027015686,-0.5926790237426758,0.7513750195503235
1711795433501835500,3.56583544921875,-0.6839990019798279,-0.5042589902877808,0.7440419793128967
1711795433511484400,3.575484375,-0.5776060223579407,-0.4745369851589203,0.6702250242233276
1711795433521133800,3.5851337890625,-0.2910839915275574,-0.6844409704208374,0.7380669713020325
1711795433530783000,3.594782958984375,0.06757300347089767,-0.7767519950866699,0.5728740096092224
1711795433540432400,3.604432373046875,0.2581779956817627,-0.9156590104103088,0.4376089870929718
1711795433550081500,3.61408154296875,0.2871769964694977,-0.9519839882850647,0.3645789921283722
1711795433559730700,3.623730712890625,0.02764200046658516,-1.0984389781951904,0.3817889988422394
1711795433569379800,3.6333798828125,-0.24422700703144073,-1.0690200328826904,0.3802799880504608
1711795433579029000,3.643029052734375,-0.40961000323295593,-0.9631549715995789,0.4454360008239746
1711795433588678100,3.65267822265625,-0.4740859866142273,-0.8237959742546082,0.48249000310897827
1711795433598327300,3.662327392578125,-0.34056198596954346,-0.7149519920349121,0.5579379796981812
1711795433607976400,3.6719765625,-0.19908800721168518,-0.6377130150794983,0.5344330072402954
1711795433617625900,3.6816259765625,-0.07896199822425842,-0.6117900013923645,0.35348498821258545
1711795433627275000,3.69127490234375,-0.005590999964624643,-0.6438120007514954,0.24855299293994904
1711795433636924200,3.700924072265625,0.0201370008289814,-0.6208480000495911,0.1095850020647049
1711795433646573300,3.7105732421875,0.0007389999809674919,-0.4896630048751831,-0.007555999793112278
1711795433656222700,3.72022265625,-0.08133299648761749,-0.40327298641204834,-0.034839000552892685
1711795433665872000,3.729871826171875,-0.288331001996994,-0.3424279987812042,0.02865299955010414
1711795433675521000,3.73952099609375,-0.5466499924659729,-0.23352700471878052,0.02895900048315525
1711795433685170000,3.749169921875,-0.736640989780426,-0.15317100286483765,0.043017998337745667
1711795433694819300,3.7588193359375,-0.7494680285453796,-0.07548999786376953,0.025817999616265297
1711795433704468500,3.768468505859375,-0.8424710035324097,-0.007160999812185764,0.008634000085294247
1711795433714117600,3.77811767578125,-0.7331479787826538,0.05901600047945976,-0.006080999970436096
1711795433723766800,3.787766845703125,-0.5547090172767639,0.07823999971151352,-0.04807500168681145
1711795433733416200,3.797416259765625,-0.3514139950275421,0.07195500284433365,0.028098000213503838
1711795433743065300,3.8070654296875,-0.21505899727344513,0.08787599951028824,0.10964000225067139
1711795433752714500,3.816714599609375,-0.12106499820947647,0.16515100002288818,0.18715499341487885
1711795433762363600,3.82636376953125,-0.22797200083732605,0.22294700145721436,0.110275998711586
1711795433772012800,3.8360126953125,-0.41912901401519775,0.334526002407074,0.07039500027894974
1711795433781662000,3.845661865234375,-0.672730028629303,0.357820987701416,0.030189000070095062
1711795433791311400,3.855311279296875,-0.7953000068664551,0.34224599599838257,0.03807400166988373
1711795433800960500,3.86496044921875,-0.7904800176620483,0.3000029921531677,0.1076970025897026
1711795433810609700,3.874609619140625,-0.5052530169487,0.24737699329853058,0.09278400242328644
1711795433820259000,3.884259033203125,-0.2858879864215851,0.22303900122642517,0.008245999924838543
1711795433829908200,3.893908203125,-0.2739880084991455,0.23121799528598785,-0.07869700342416763
1711795433839557400,3.903557373046875,-0.12362799793481827,0.21308700740337372,-0.003868000116199255
1711795433849206500,3.91320654296875,0.02439500018954277,0.22211900353431702,0.043919000774621964
1711795433858855700,3.922855712890625,0.1745070070028305,0.19277000427246094,0.08691299706697464
1711795433868504800,3.9325048828125,0.18727600574493408,0.19630399346351624,0.10766799747943878
1711795433878154000,3.942154052734375,0.09401299804449081,0.21122799813747406,0.10884200036525726
1711795433887803400,3.951803466796875,-0.027993999421596527,0.20626200735569,0.07647600024938583
1711795433897452500,3.96145263671875,-0.09245000034570694,0.21106000244617462,0.016644999384880066
1711795433907101700,3.971101806640625,-0.22691099345684052,0.24070799350738525,-0.08495400100946426
1711795433916750800,3.980750732421875,-0.37096500396728516,0.27463701367378235,-0.1012749969959259
1711795433926400300,3.990400146484375,-0.4911769926548004,0.3291749954223633,-0.12561599910259247
1711795433936049200,4.000049072265625,-0.49814900755882263,0.2921470105648041,-0.06569299846887589
1711795433945698300,4.0096982421875,-0.4552119970321655,0.30778300762176514,0.0463160015642643
1711795433955347700,4.01934765625,-0.21803200244903564,0.29172399640083313,0.09971699863672256
1711795433964996900,4.028996826171875,0.042284999042749405,0.323168009519577,0.12254200130701065
1711795433974646000,4.03864599609375,0.1021369993686676,0.3230240046977997,0.21475499868392944
1711795433984295400,4.04829541015625,-0.05940600112080574,0.3665179908275604,0.2777779996395111
1711795433993944600,4.057944580078125,-0.24168099462985992,0.43383899331092834,0.21706299483776093
1711795434003593700,4.06759375,-0.33470600843429565,0.4485439956188202,0.22415399551391602
1711795434013243000,4.077242919921875,-0.3404110074043274,0.3830519914627075,0.17847099900245667
1711795434022892300,4.086892333984375,-0.2706499993801117,0.3740220069885254,0.10395199805498123
1711795434032541400,4.09654150390625,-0.11497599631547928,0.35924801230430603,0.09243500232696533
1711795434042190300,4.1061904296875,-0.10094600170850754,0.3292570114135742,0.1258379966020584
1711795434051839700,4.11583984375,0.01154400035738945,0.29943498969078064,0.14883199334144592
1711795434061489000,4.125489013671875,0.14694899320602417,0.2890540063381195,0.1666949987411499
1711795434071138000,4.135137939453125,0.3118549883365631,0.2694129943847656,0.1733279973268509
1711795434080787500,4.144787353515625,0.29688000679016113,0.31666800379753113,0.22791700065135956
1711795434090436600,4.1544365234375,0.24676799774169922,0.46233800053596497,0.3431270122528076
1711795434100085800,4.164085693359375,0.28656598925590515,0.5349730253219604,0.3600409924983978
1711795434109735000,4.17373486328125,0.38358500599861145,0.29662299156188965,0.28430500626564026
1711795434119384300,4.18338427734375,0.40901100635528564,0.045462001115083694,0.08638899773359299
1711795434129033500,4.193033447265625,0.5689619779586792,0.08972200006246567,0.10991699993610382
1711795434138682400,4.202682373046875,0.7005090117454529,0.05786899849772453,0.1888439953327179
1711795434148331500,4.21233154296875,0.9660030007362366,0.08032400161027908,0.2533800005912781
1711795434157981000,4.22198095703125,1.3270959854125977,0.004769999999552965,0.29075300693511963
1711795434167630000,4.231630126953125,1.5348140001296997,-0.06508000195026398,0.16110999882221222
1711795434177279200,4.241279296875,1.6654969453811646,-0.1455869972705841,0.052563998848199844
1711795434186928400,4.250928466796875,1.5209269523620605,-0.1572210043668747,-0.021763000637292862
1711795434196577800,4.260577880859375,1.423380970954895,-0.11938899755477905,-0.10997000336647034
1711795434206227000,4.27022705078125,1.1738849878311157,-0.1270570009946823,-0.2090419977903366
1711795434215876000,4.2798759765625,0.8203380107879639,-0.1861719936132431,-0.29476198554039
1711795434225525200,4.289525146484375,0.40986400842666626,-0.17985500395298004,-0.29548901319503784
1711795434235174400,4.29917431640625,0.24780899286270142,-0.12045799940824509,-0.3547770082950592
1711795434244823600,4.308823486328125,0.2887659966945648,-0.02984200045466423,-0.40153899788856506
1711795434254473000,4.318472900390625,0.29024699330329895,-0.1205969974398613,-0.41886699199676514
1711795434264122000,4.3281220703125,0.4117960035800934,-0.11797299981117249,-0.40191900730133057
1711795434273771300,4.337771240234375,0.44103100895881653,-0.10165800154209137,-0.42641401290893555
1711795434283420400,4.34742041015625,0.33267098665237427,-0.1207600012421608,-0.4786669909954071
1711795434293069600,4.357069580078125,0.17330199480056763,-0.12857599556446075,-0.5351380109786987
1711795434302719000,4.366718994140625,-0.1487320065498352,-0.032944001257419586,-0.49528801441192627
1711795434312368000,4.3763681640625,-0.5105890035629272,-0.008491000160574913,-0.3091999888420105
1711795434322017000,4.38601708984375,-0.789359986782074,-0.05882199853658676,-0.11675799638032913
1711795434331666400,4.39566650390625,-0.9476100206375122,-0.12519200146198273,-0.05333799868822098
1711795434341315800,4.40531591796875,-0.8901870250701904,-0.2075349986553192,-0.04331099987030029
1711795434350964700,4.41496484375,-0.766319990158081,-0.2951720058917999,-0.07659900188446045
1711795434360614000,4.42461376953125,-0.4979580044746399,-0.3299979865550995,-0.11466100066900253
1711795434370263300,4.43426318359375,-0.3234789967536926,-0.39885300397872925,-0.19784599542617798
1711795434379912400,4.443912353515625,-0.16834600269794464,-0.39930999279022217,-0.2970759868621826
1711795434389561900,4.453561767578125,0.045559998601675034,-0.5427280068397522,-0.28719401359558105
1711795434399211000,4.4632109375,0.15697400271892548,-0.5947780013084412,-0.3601610064506531
1711795434408860200,4.472860107421875,0.4126110076904297,-0.6873400211334229,-0.39849698543548584
1711795434418509000,4.482509033203125,0.8655869960784912,-0.6190680265426636,-0.42909300327301025
1711795434428158500,4.492158447265625,0.9734910130500793,-0.5723379850387573,-0.3839130103588104
1711795434437807600,4.5018076171875,0.7354710102081299,-0.5496259927749634,-0.29104501008987427
1711795434447457000,4.51145703125,0.2736569941043854,-0.5433300137519836,-0.2752929925918579
1711795434457106200,4.521106201171875,-0.16430599987506866,-0.4223969876766205,-0.2847050130367279
1711795434466755300,4.53075537109375,-0.448172003030777,-0.4074290096759796,-0.37968701124191284
1711795434476404500,4.540404541015625,-0.6123539805412292,-0.3486599922180176,-0.45549899339675903
1711795434486053600,4.5500537109375,-0.747344970703125,-0.2329930067062378,-0.49158599972724915
1711795434495703000,4.559703125,-0.7054979801177979,-0.11571799963712692,-0.3777799904346466
1711795434505352200,4.569352294921875,-0.5963960289955139,0.006016000173985958,-0.286873996257782
1711795434515001000,4.5790009765625,-0.553301990032196,0.11620599776506424,-0.16027599573135376
1711795434524650200,4.588650146484375,-0.5405259728431702,0.13439500331878662,-0.11427599936723709
1711795434534299600,4.598299560546875,-0.5661380290985107,0.16621600091457367,-0.18184000253677368
1711795434543948800,4.60794873046875,-0.5275310277938843,0.16500599682331085,-0.23747900128364563
1711795434553598000,4.617597900390625,-0.47370800375938416,0.14143399894237518,-0.16276200115680695
1711795434563247400,4.627247314453125,-0.27343499660491943,0.06889700144529343,-0.09850200265645981
1711795434572896500,4.636896484375,-0.046039000153541565,0.0656139999628067,-0.019108999520540237
1711795434582545700,4.646545654296875,0.20746800303459167,0.055757999420166016,0.11735299974679947
1711795434592194800,4.65619482421875,0.5286070108413696,0.03608899936079979,0.19272199273109436
1711795434601844200,4.66584423828125,0.7824990153312683,0.20211000740528107,0.039051998406648636
1711795434611493400,4.675493408203125,0.8209099769592285,0.3123210072517395,-0.06542500108480453
1711795434621142500,4.685142578125,0.790369987487793,0.34640198945999146,-0.11859700083732605
1711795434630791700,4.694791748046875,0.626954972743988,0.3728159964084625,-0.27771300077438354
1711795434640440800,4.70444091796875,0.5028979778289795,0.40934300422668457,-0.30625399947166443
1711795434650090000,4.714090087890625,0.4238109886646271,0.41986799240112305,-0.24374400079250336
1711795434659739400,4.723739501953125,0.32889699935913086,0.5400980114936829,-0.254707008600235
1711795434669388500,4.733388427734375,0.18558600544929504,0.5546979904174805,-0.20277699828147888
1711795434679037700,4.74303759765625,0.02473899908363819,0.49882999062538147,-0.09703300148248672
1711795434688686800,4.752686767578125,-0.14472199976444244,0.4000380039215088,-0.07031600177288055
1711795434698336000,4.7623359375,-0.31807801127433777,0.31149500608444214,-0.08921899646520615
1711795434707985400,4.7719853515625,-0.5281929969787598,0.3087260127067566,-0.11490000039339066
1711795434717634600,4.781634521484375,-0.7296630144119263,0.21244899928569794,-0.10552500188350677
1711795434727283700,4.79128369140625,-0.7520279884338379,0.14525599777698517,-0.14011900126934052
1711795434736932900,4.800932861328125,-0.6832060217857361,0.16974100470542908,-0.23601900041103363
1711795434746582000,4.81058203125,-0.5302979946136475,0.19372199475765228,-0.20761699974536896
1711795434756231200,4.820231201171875,-0.36729300022125244,0.1833299994468689,-0.1082329973578453
1711795434765880300,4.82988037109375,-0.3242970108985901,0.17239800095558167,-0.033032000064849854
1711795434775529700,4.83952978515625,-0.2155659943819046,0.1196340024471283,-0.03795100003480911
1711795434785179000,4.849178955078125,-0.06540700048208237,0.036775000393390656,0.023447999730706215
1711795434794828300,4.858828369140625,-0.010909000411629677,-0.016947999596595764,-0.012013999745249748
1711795434804477400,4.8684775390625,0.0840189978480339,-0.027619000524282455,-0.0731630027294159
1711795434814126600,4.878126708984375,0.15272299945354462,-0.029248999431729317,-0.07381100207567215
1711795434823775700,4.887775634765625,0.1953199952840805,0.07165099680423737,-0.05722599849104881
1711795434833425200,4.897425048828125,0.061521999537944794,0.1964379996061325,-0.028015999123454094
1711795434843074000,4.907073974609375,-0.0816200003027916,0.24393600225448608,0.018125999718904495
1711795434852723500,4.916723388671875,-0.10429199784994125,0.3022499978542328,0.06998199969530106
1711795434862372600,4.92637255859375,-0.20350700616836548,0.33490699529647827,0.03806700184941292
1711795434872021800,4.936021728515625,-0.32065701484680176,0.4309200048446655,-0.0614980012178421
1711795434881671000,4.9456708984375,-0.36370500922203064,0.4298979938030243,-0.0504009984433651
1711795434891320300,4.9553203125,-0.4273189902305603,0.4499189853668213,-0.08264099806547165
1711795434900969500,4.964969482421875,-0.3226830065250397,0.4053269922733307,-0.14391399919986725
1711795434910618600,4.97461865234375,-0.08851800113916397,0.3520919978618622,-0.1420920044183731
1711795434920267800,4.984267822265625,0.05316999927163124,0.3120400011539459,-0.09071499854326248
1711795434929917200,4.993917236328125,0.2045149952173233,0.3041299879550934,-0.09560400247573853
1711795434939566300,5.00356640625,0.4391019940376282,0.2609489858150482,-0.12932899594306946
1711795434949215500,5.013215576171875,0.6856560111045837,0.21253900229930878,-0.11570499837398529
1711795434958865000,5.022864990234375,0.8649129867553711,0.2553510069847107,-0.14918600022792816
1711795434968513800,5.032513671875,0.8535919785499573,0.3126010000705719,-0.22335700690746307
1711795434978163000,5.042162841796875,0.7632880210876465,0.3434079885482788,-0.24496600031852722
1711795434987812600,5.0518125,0.6992239952087402,0.43450701236724854,-0.22833700478076935
1711795434997461500,5.06146142578125,0.6127030253410339,0.46358799934387207,-0.22677099704742432
1711795435007110700,5.071110595703125,0.45467299222946167,0.685683012008667,-0.2123810052871704
1711795435016760000,5.080760009765625,0.292043000459671,0.7070279717445374,-0.05933700129389763
1711795435026409000,5.090408935546875,0.06607700139284134,0.47994399070739746,0.00788199994713068
1711795435036058400,5.100058349609375,-0.08961000293493271,0.27171000838279724,-0.008975000120699406
1711795435045707300,5.109707275390625,-0.18351800739765167,0.27993398904800415,-0.09695400297641754
1711795435055356700,5.119356689453125,-0.06731899827718735,0.5233399868011475,-0.1204179972410202
1711795435065005800,5.129005859375,0.24363400042057037,0.6549130082130432,0.005317999981343746
1711795435074655000,5.138655029296875,0.5846940279006958,0.4617229998111725,0.07938899844884872
1711795435084304100,5.14830419921875,0.934902012348175,0.2041040062904358,0.10951700061559677
1711795435093953500,5.15795361328125,1.3897360563278198,0.018720999360084534,0.08398299664258957
1711795435103602700,5.167602783203125,1.5366369485855103,-0.10620500147342682,0.08653700351715088
1711795435113251800,5.177251953125,1.4720849990844727,-0.28286999464035034,0.13090300559997559
1711795435122901200,5.1869013671875,1.3073580265045166,-0.3866190016269684,0.08003000169992447
1711795435132550400,5.19655029296875,1.0265779495239258,-0.3787209987640381,0.023973999544978142
1711795435142199600,5.206199462890625,0.727217972278595,-0.37988099455833435,0.11758899688720703
1711795435151848700,5.2158486328125,0.42310699820518494,-0.3602150082588196,0.32930299639701843
1711795435161498000,5.225498046875,0.1394450068473816,-0.3023830056190491,0.4435890018939972
1711795435171147000,5.23514697265625,-0.09280700236558914,-0.32558101415634155,0.5154680013656616
1711795435180796200,5.244796142578125,-0.23934300243854523,-0.4625900089740753,0.5396990180015564
1711795435190445300,5.2544453125,-0.283286988735199,-0.4892689883708954,0.47615399956703186
1711795435200095000,5.264094970703125,-0.22697199881076813,-0.5244479775428772,0.4655730128288269
1711795435209744100,5.273744140625,-0.05581999942660332,-0.5384699702262878,0.45155400037765503
1711795435219393300,5.283393310546875,0.08118099719285965,-0.5692330002784729,0.439411997795105
1711795435229042400,5.29304248046875,0.14263999462127686,-0.5801169872283936,0.4203749895095825
1711795435238691600,5.302691650390625,0.1041169986128807,-0.7001649737358093,0.33839601278305054
1711795435248340700,5.3123408203125,0.016877999529242516,-0.6634659767150879,0.10652700066566467
1711795435257990000,5.321989990234375,-0.18304899334907532,-0.62916100025177,-0.10532499849796295
1711795435267639300,5.331639404296875,-0.49950799345970154,-0.6573370099067688,-0.10875099897384644
1711795435277288400,5.341288330078125,-0.7271019816398621,-0.7566729784011841,-0.04216499999165535
1711795435286937600,5.3509375,-0.81557297706604,-0.7955999970436096,0.029978999868035316
1711795435296586800,5.360586669921875,-0.8152830004692078,-0.8923439979553223,0.15647000074386597
1711795435306236000,5.37023583984375,-0.6916170120239258,-0.9178299903869629,0.2754630148410797
1711795435315885000,5.379885009765625,-0.42198801040649414,-0.9327070116996765,0.3609519898891449
1711795435325534200,5.3895341796875,-0.18985499441623688,-0.8173450231552124,0.406919002532959
1711795435335183600,5.39918359375,-0.09727399796247482,-0.7365339994430542,0.39714398980140686
1711795435344832800,5.408832763671875,0.0012839999981224537,-0.6992359757423401,0.44051501154899597
1711795435354482000,5.41848193359375,-0.00013000000035390258,-0.76043701171875,0.46665799617767334
1711795435364131300,5.42813134765625,-0.10582400113344193,-0.7887420058250427,0.43189001083374023
1711795435373780500,5.437780517578125,-0.3391149938106537,-0.7650169730186462,0.3755519986152649
1711795435383429600,5.4474296875,-0.5116990208625793,-0.6732580065727234,0.31956198811531067
1711795435393078800,5.457078857421875,-0.5290780067443848,-0.6236240267753601,0.26915600895881653
1711795435402728000,5.46672802734375,-0.4969080090522766,-0.46372300386428833,0.19367200136184692
1711795435412377300,5.47637744140625,-0.31169798970222473,-0.32252898812294006,0.10951200127601624
1711795435422026500,5.486026611328125,-0.12879200279712677,-0.23656100034713745,0.05677200108766556
1711795435431675600,5.495675537109375,0.15186800062656403,-0.23329700529575348,0.0832270011305809
1711795435441325000,5.505324951171875,0.44473299384117126,-0.15372000634670258,0.058556001633405685
1711795435450974200,5.51497412109375,0.7137969732284546,-0.10837800055742264,0.12147600203752518
1711795435460623400,5.524623291015625,0.8462430238723755,-0.11302600055932999,0.1748420000076294
1711795435470272500,5.5342724609375,0.8327400088310242,-0.018976999446749687,0.10987599939107895
1711795435479921700,5.543921630859375,0.5759779810905457,0.09276200085878372,0.06230499967932701
1711795435489570800,5.55357080078125,0.06160400062799454,0.23979799449443817,-0.05995500087738037
1711795435499220200,5.56322021484375,-0.5285630226135254,0.3658350110054016,-0.12426800280809402
1711795435508869400,5.572869384765625,-1.0416430234909058,0.47976401448249817,-0.11324100196361542
1711795435518518500,5.5825185546875,-1.2189370393753052,0.5307080149650574,-0.05605100095272064
1711795435528167700,5.592167724609375,-1.174852967262268,0.5281779766082764,0.03342000022530556
1711795435537817000,5.601817138671875,-0.9598029851913452,0.501130998134613,0.11728700250387192
1711795435547466200,5.61146630859375,-0.7408329844474792,0.40001800656318665,0.20083099603652954
1711795435557115400,5.621115478515625,-0.5714489817619324,0.33092001080513,0.18973200023174286
1711795435566764500,5.6307646484375,-0.3673059940338135,0.3451380133628845,0.15000200271606445
1711795435576413700,5.64041357421875,-0.26722100377082825,0.33667200803756714,0.14055199921131134
1711795435586062800,5.650062744140625,-0.14457300305366516,0.25489500164985657,0.18010400235652924
1711795435595712300,5.659712158203125,-0.0183119997382164,0.25231799483299255,0.15576499700546265
1711795435605361400,5.669361328125,-0.031248999759554863,0.24911099672317505,0.07309199869632721
1711795435615010600,5.679010498046875,-0.10937999933958054,0.20480500161647797,0.05599699914455414
1711795435624659700,5.68865966796875,-0.21789799630641937,0.22958800196647644,0.05727899819612503
1711795435634309000,5.69830908203125,-0.2145960032939911,0.2136079967021942,0.08347900211811066
1711795435643958300,5.707958251953125,-0.119937002658844,0.22860899567604065,0.07943099737167358
1711795435653607400,5.717607421875,-0.0626859962940216,0.29497799277305603,0.07523000240325928
1711795435663256800,5.7272568359375,0.07213699817657471,0.3527980148792267,0.051867999136447906
1711795435672905700,5.73690576171875,0.21113499999046326,0.3771060109138489,0.05494200065732002
1711795435682555000,5.746554931640625,0.31925201416015625,0.48694100975990295,-0.008286000229418278
1711795435692204300,5.756204345703125,0.2434079945087433,0.5639740228652954,-0.09338600188493729
1711795435701853400,5.765853515625,0.14864599704742432,0.6268969774246216,-0.07710400223731995
1711795435711502600,5.775502685546875,0.04872100055217743,0.6635569930076599,-0.09751500189304352
1711795435721151700,5.78515185546875,-0.045260000973939896,0.7102349996566772,-0.11292500048875809
1711795435730801200,5.79480126953125,-0.11693699657917023,0.6497210264205933,-0.021296000108122826
1711795435740450300,5.8044501953125,-0.19737200438976288,0.6977030038833618,-0.042357999831438065
1711795435750099500,5.814099365234375,-0.1593089997768402,0.7166820168495178,-0.08605699986219406
1711795435759748900,5.823748779296875,-0.10408700257539749,0.7266179919242859,-0.09552299976348877
1711795435769398000,5.83339794921875,-0.08132299780845642,0.6454110145568848,-0.07416100054979324
1711795435779047200,5.843047119140625,0.014422999694943428,0.6025729775428772,-0.01722699962556362
1711795435788696300,5.8526962890625,0.15762899816036224,0.5456650257110596,0.022628000006079674
1711795435798345500,5.862345458984375,0.1852950006723404,0.5578269958496094,0.08734499663114548
1711795435807995000,5.871994873046875,0.16559599339962006,0.5414140224456787,0.14029400050640106
1711795435817644000,5.88164404296875,0.13919200003147125,0.6206409931182861,0.1856130063533783
1711795435827293200,5.891293212890625,0.14969000220298767,0.6886339783668518,0.17931899428367615
1711795435836942300,5.9009423828125,0.1379839926958084,0.8588529825210571,0.17126299440860748
1711795435846591500,5.910591552734375,0.16519899666309357,0.7926610112190247,0.22254100441932678
1711795435856241000,5.920240966796875,0.18244299292564392,0.6423559784889221,0.19338400661945343
1711795435865890000,5.92989013671875,0.2197200059890747,0.508912980556488,0.12955999374389648
1711795435875539200,5.939539306640625,0.141184002161026,0.4564020037651062,0.042465001344680786
1711795435885188400,5.949188232421875,0.09567099809646606,0.47734999656677246,0.035930998623371124
1711795435894837500,5.95883740234375,0.15114499628543854,0.43280699849128723,0.0896959975361824
1711795435904487000,5.96848681640625,0.35808199644088745,0.32721298933029175,0.06462399661540985
1711795435914135800,5.9781357421875,0.6832410097122192,0.18256700038909912,-0.046907998621463776
1711795435923785200,5.98778515625,0.8972910046577454,0.14008300006389618,-0.10548599809408188
1711795435933434600,5.9974345703125,0.895566999912262,-0.0050479997880756855,-0.06115899980068207
1711795435943083500,6.00708349609375,1.0248210430145264,-0.14430400729179382,-0.09142599999904633
1711795435952732700,6.016732666015625,1.1885069608688354,-0.282927006483078,-0.22556699812412262
1711795435962382000,6.026382080078125,1.2482270002365112,-0.3754499852657318,-0.29245901107788086
1711795435972031200,6.03603125,1.100970983505249,-0.3586130142211914,-0.2738479971885681
1711795435981680400,6.045680419921875,0.8109610080718994,-0.3440209925174713,-0.17980100214481354
1711795435991329800,6.055329833984375,0.5293800234794617,-0.4295699894428253,-0.028389999642968178
1711795436000979000,6.06497900390625,0.33568400144577026,-0.4312730133533478,0.05067399889230728
1711795436010628000,6.074628173828125,0.17614799737930298,-0.4736340045928955,0.02232399955391884
1711795436020277200,6.08427734375,-0.04717399924993515,-0.5749899744987488,-0.007652999833226204
1711795436029926700,6.0939267578125,-0.1129549965262413,-0.6245459914207458,0.028454000130295753
1711795436039575800,6.103575927734375,-0.18842600286006927,-0.635915994644165,0.021222999319434166
1711795436049225000,6.113224853515625,-0.11932700127363205,-0.6804239749908447,-0.050345998257398605
1711795436058874400,6.122874267578125,-0.04782000184059143,-0.7356209754943848,-0.09886100143194199
1711795436068523300,6.132523193359375,0.07572299987077713,-0.9303470253944397,-0.09655000269412994
1711795436078172400,6.14217236328125,0.15755900740623474,-0.9718390107154846,-0.1529189944267273
1711795436087821800,6.15182177734375,0.009525000117719173,-1.0334819555282593,-0.18239299952983856
1711795436097471200,6.16147119140625,-0.2212350070476532,-1.0746560096740723,0.02349800057709217
1711795436107120000,6.1711201171875,-0.4918229877948761,-1.135485053062439,0.17256799340248108
1711795436116769300,6.180769287109375,-0.5288299918174744,-0.9267160296440125,0.3505750000476837
1711795436126418700,6.190418701171875,-0.5146480202674866,-0.7370910048484802,0.3660790026187897
1711795436136067800,6.20006787109375,-0.684715986251831,-0.6240649819374084,0.20695100724697113
1711795436145717000,6.209717041015625,-0.8225370049476624,-0.5076519846916199,-0.04154599830508232
1711795436155366100,6.2193662109375,-0.5978130102157593,-0.3991209864616394,-0.2896769940853119
1711795436165015600,6.229015625,-0.32867300510406494,-0.24968299269676208,-0.44297000765800476
1711795436174664700,6.238664794921875,0.10137200355529785,-0.13258500397205353,-0.4186039865016937
1711795436184313900,6.24831396484375,0.3574970066547394,-0.17621199786663055,-0.36644500494003296
1711795436193963300,6.25796337890625,0.47403600811958313,-0.19232599437236786,-0.3502280116081238
1711795436203612400,6.2676123046875,0.2821260094642639,-0.268981009721756,-0.45267099142074585
1711795436213261300,6.27726123046875,-0.06334400177001953,-0.28994399309158325,-0.5743950009346008
1711795436222910700,6.28691064453125,-0.3641979992389679,-0.3254779875278473,-0.6655340194702148
1711795436232559900,6.296559814453125,-0.6815320253372192,-0.26802799105644226,-0.7104859948158264
1711795436242209000,6.306208984375,-0.7532089948654175,-0.3466930091381073,-0.6532580256462097
1711795436251858200,6.315858154296875,-0.5993819832801819,-0.41065099835395813,-0.5104489922523499
1711795436261507300,6.32550732421875,-0.3342350125312805,-0.4025689959526062,-0.5636680126190186
1711795436271156700,6.33515673828125,-0.04884300008416176,-0.48124799132347107,-0.426474004983902
1711795436280806000,6.344805908203125,0.37782999873161316,-0.6244440078735352,-0.3015570044517517
1711795436290455300,6.354455322265625,0.7961829900741577,-0.6390979886054993,-0.18164999783039093
1711795436300104400,6.3641044921875,1.1415389776229858,-0.6578860282897949,-0.04458199813961983
1711795436309753600,6.373753662109375,1.3455250263214111,-0.5082529783248901,0.07258900254964828
1711795436319403000,6.383403076171875,1.326308012008667,-0.31084999442100525,0.1521580070257187
1711795436329052200,6.39305224609375,0.9123370051383972,-0.1005219966173172,0.14196300506591797
1711795436338701300,6.402701416015625,0.40678900480270386,0.11382099986076355,0.14187400043010712
1711795436348350200,6.41235009765625,-0.03977600112557411,0.2863430082798004,0.17360499501228333
1711795436357999600,6.42199951171875,-0.46144700050354004,0.37818899750709534,0.31102100014686584
1711795436367649000,6.43164892578125,-0.8231520056724548,0.3688119947910309,0.39138901233673096
1711795436377298000,6.4412978515625,-0.90488201379776,0.46431300044059753,0.4148249924182892
1711795436386947300,6.450947265625,-0.8981930017471313,0.5071750283241272,0.39629098773002625
1711795436396596500,6.460596435546875,-0.8313729763031006,0.5696510076522827,0.4025909900665283
1711795436406245600,6.47024560546875,-0.8522419929504395,0.5616819858551025,0.4073430001735687
1711795436415895000,6.47989501953125,-0.8540099859237671,0.44999900460243225,0.39996498823165894
1711795436425544200,6.489544189453125,-0.7830600142478943,0.28601300716400146,0.34455400705337524
1711795436435193300,6.499193359375,-0.7034369707107544,0.1896200031042099,0.2868320047855377
1711795436444842500,6.508842529296875,-0.49897900223731995,0.13538199663162231,0.15314899384975433
1711795436454491600,6.51849169921875,-0.39233899116516113,0.12212400138378143,0.08216500282287598
1711795436464141000,6.52814111328125,-0.3931879997253418,0.07385600358247757,0.08514799922704697
1711795436473790200,6.537790283203125,-0.46368899941444397,0.08878099918365479,0.09348800033330917
1711795436483439400,6.547439453125,-0.4635370075702667,0.15687400102615356,0.05887199938297272
1711795436493088800,6.5570888671875,-0.4388749897480011,0.226950004696846,0.0038709999062120914
1711795436502738000,6.566738037109375,-0.3436200022697449,0.21348200738430023,-0.020361000671982765
1711795436512386800,6.57638671875,-0.2921940088272095,0.2044679969549179,-0.09901700168848038
1711795436522036200,6.5860361328125,-0.17092099785804749,0.1839970052242279,-0.10200899839401245
1711795436531685400,6.595685302734375,-0.010809999890625477,0.2448820024728775,-0.17839199304580688
1711795436541334800,6.605334716796875,0.11052300035953522,0.23728500306606293,-0.16220800578594208
1711795436550984000,6.61498388671875,0.2168080061674118,0.294187992811203,-0.09987399727106094
1711795436560633000,6.624633056640625,0.2996020019054413,0.36775800585746765,-0.08542300015687943
1711795436570282200,6.6342822265625,0.32590198516845703,0.48183101415634155,-0.08967000246047974
1711795436579931400,6.643931396484375,0.3311690092086792,0.6248160004615784,-0.11541599780321121
1711795436589580500,6.65358056640625,0.2910679876804352,0.7286840081214905,-0.17780500650405884
1711795436599230000,6.66322998046875,0.21795399487018585,0.811689019203186,-0.2414100021123886
1711795436608879000,6.672879150390625,0.17863300442695618,0.8841909766197205,-0.19891099631786346
1711795436618528300,6.6825283203125,0.14792199432849884,0.8929349780082703,-0.14922499656677246
1711795436628177700,6.692177734375,0.16297300159931183,0.9256849884986877,-0.16329200565814972
1711795436637826800,6.701826904296875,0.22725099325180054,0.8978049755096436,-0.19313199818134308
1711795436647476000,6.71147607421875,0.20090100169181824,0.9337459802627563,-0.27401798963546753
1711795436657125000,6.721125,0.18353599309921265,0.9070090055465698,-0.3312090039253235
1711795436666774300,6.730774169921875,0.2794870138168335,0.889989972114563,-0.36453500390052795
1711795436676423400,6.74042333984375,0.5052279829978943,0.8214899897575378,-0.40058600902557373
1711795436686072800,6.75007275390625,0.6687830090522766,0.7800480127334595,-0.47418099641799927
1711795436695722000,6.759721923828125,0.8925790190696716,0.7502819895744324,-0.49564701318740845
1711795436705371100,6.76937109375,1.1649889945983887,0.6413480043411255,-0.4388650059700012
1711795436715020300,6.779020263671875,1.3452420234680176,0.5575050115585327,-0.367823988199234
1711795436724669700,6.788669677734375,1.55063796043396,0.5109990239143372,-0.3733859956264496
1711795436734318800,6.79831884765625,1.6914960145950317,0.5560969710350037,-0.32373398542404175
1711795436743968000,6.807968017578125,1.5458790063858032,0.6168370246887207,-0.24961300194263458
1711795436753617400,6.817617431640625,1.200732946395874,0.5324299931526184,-0.17952899634838104
1711795436763266300,6.827266357421875,0.6900209784507751,0.3361940085887909,-0.13156500458717346
1711795436772915700,6.836915771484375,0.3566569983959198,0.13940399885177612,-0.16915899515151978
1711795436782565000,6.846565185546875,0.08938699960708618,0.22454799711704254,-0.270922988653183
1711795436792214000,6.856214111328125,-0.06602799892425537,0.3108710050582886,-0.18034400045871735
1711795436801863200,6.86586328125,0.03132700175046921,0.28836899995803833,-0.0789019986987114
1711795436811512600,6.8755126953125,0.3312920033931732,0.0965920016169548,0.014042000286281109
1711795436821161700,6.88516162109375,0.6573070287704468,-0.00788000039756298,0.07093299925327301
1711795436830811000,6.894810791015625,0.828944981098175,-0.13281500339508057,0.107355996966362
1711795436840460300,6.904460205078125,0.950173020362854,-0.27580899000167847,0.2028840035200119
1711795436850109400,6.914109375,0.9416959881782532,-0.386927992105484,0.2374899983406067
1711795436859758600,6.923758544921875,0.9268710017204285,-0.4765999913215637,0.1704840064048767
1711795436869407700,6.93340771484375,0.8507230281829834,-0.42555299401283264,0.07944100350141525
1711795436879057200,6.94305712890625,0.6321989893913269,-0.4231480062007904,0.05577399954199791
1711795436888706300,6.952706298828125,0.32743000984191895,-0.3855859935283661,0.06754200160503387
1711795436898355500,6.96235546875,0.05619100108742714,-0.37789100408554077,0.09872700273990631
1711795436908004600,6.972004638671875,-0.17869600653648376,-0.4438070058822632,0.10027199983596802
1711795436917654000,6.981654052734375,-0.21748900413513184,-0.4810679852962494,0.08520200103521347
1711795436927303000,6.991302978515625,-0.2881869971752167,-0.42769700288772583,0.05622300133109093
1711795436936952000,7.0009521484375,-0.31350499391555786,-0.4913730025291443,0.03378700092434883
1711795436946601700,7.010601806640625,-0.2632560133934021,-0.5250120162963867,-0.03671799972653389
1711795436956250600,7.020250732421875,-0.13893400132656097,-0.5467529892921448,-0.09406500309705734
1711795436965899800,7.029899658203125,-0.1035190001130104,-0.6148290038108826,-0.0648069977760315
1711795436975549000,7.039548828125,-0.005867000203579664,-0.7210289835929871,-0.02689800038933754
1711795436985198300,7.0491982421875,-0.06601899862289429,-0.7063620090484619,0.033277999609708786
1711795436994847500,7.058847412109375,-0.10345099866390228,-0.6958879828453064,0.07811199873685837
1711795437004496600,7.06849658203125,-0.2427230030298233,-0.6267390251159668,0.14988400042057037
1711795437014146000,7.07814599609375,-0.5103930234909058,-0.6093699932098389,0.21592600643634796
1711795437023795200,7.087795166015625,-0.742247998714447,-0.5676950216293335,0.22700800001621246
1711795437033444400,7.0974443359375,-0.8869720101356506,-0.5380430221557617,0.29622000455856323
1711795437043093500,7.107093505859375,-1.0233609676361084,-0.537958025932312,0.38081100583076477
1711795437052742700,7.11674267578125,-1.1155749559402466,-0.5529999732971191,0.4919840097427368
1711795437062392000,7.12639208984375,-1.091027021408081,-0.5134149789810181,0.4873749911785126
1711795437072041200,7.136041259765625,-0.9961900115013123,-0.5381850004196167,0.461436003446579
1711795437081690600,7.145690673828125,-1.0315159559249878,-0.6213449835777283,0.4329259991645813
1711795437091339500,7.155339599609375,-0.8855410218238831,-0.6294440031051636,0.45116400718688965
1711795437100988700,7.16498876953125,-0.650967001914978,-0.5892599821090698,0.4061970114707947
1711795437110638000,7.17463818359375,-0.31567099690437317,-0.5759080052375793,0.36467498540878296
1711795437120287200,7.184287353515625,0.00009999999747378752,-0.5304329991340637,0.2811039984226227
1711795437129936600,7.1939365234375,0.13145899772644043,-0.5448750257492065,0.2543720006942749
1711795437139585800,7.203585693359375,0.0937969982624054,-0.5275430083274841,0.28734201192855835
1711795437149235000,7.21323486328125,-0.0334089994430542,-0.5282710194587708,0.2926259934902191
1711795437158884000,7.222884033203125,-0.11038599908351898,-0.4353089928627014,0.2413329929113388
1711795437168533500,7.232533447265625,-0.0468829981982708,-0.3667509853839874,0.15274600684642792
1711795437178182700,7.2421826171875,0.014352000318467617,-0.2563369870185852,0.06359300017356873
1711795437187831800,7.251831787109375,0.1464570015668869,-0.18953700363636017,0.0756630003452301
1711795437197481200,7.261481201171875,0.3605940043926239,-0.0015569999814033508,0.007519000209867954
1711795437207130400,7.27113037109375,0.3444719910621643,0.178507998585701,-0.0338129997253418
1711795437216779300,7.280779296875,0.20891299843788147,0.2563759982585907,0.0033889999613165855
1711795437226428700,7.2904287109375,0.03127700090408325,0.328482985496521,0.023746000602841377
1711795437236077800,7.300077880859375,-0.2231770008802414,0.3958750069141388,-0.001408000010997057
1711795437245727000,7.30972705078125,-0.5087029933929443,0.41975799202919006,0.03588699921965599
1711795437255376400,7.31937646484375,-0.7891370058059692,0.3839620053768158,0.0516900010406971
1711795437265025300,7.329025390625,-0.9935709834098816,0.38447698950767517,0.0420599989593029
1711795437274674700,7.3386748046875,-1.0428040027618408,0.3926289975643158,0.05790499970316887
1711795437284323800,7.34832373046875,-0.948943018913269,0.4425249993801117,0.08231700211763382
1711795437293973000,7.357972900390625,-0.7274150252342224,0.4204989969730377,0.08083599805831909
1711795437303622100,7.3676220703125,-0.443791002035141,0.35357099771499634,0.14320099353790283
1711795437313271300,7.377271240234375,-0.1585710048675537,0.20850099623203278,0.2820509970188141
1711795437322920700,7.386920654296875,0.06981000304222107,0.17362399399280548,0.27149099111557007
1711795437332569900,7.39656982421875,0.23154999315738678,0.19768600165843964,0.25468599796295166
1711795437342219000,7.406218994140625,0.2966639995574951,0.12115799635648727,0.302729994058609
1711795437351868400,7.415868408203125,0.28090900182724,0.1077049970626831,0.30300500988960266
1711795437361517300,7.425517333984375,0.2923719882965088,0.17621099948883057,0.240774005651474
1711795437371166500,7.43516650390625,0.2516619861125946,0.2029860019683838,0.23571600019931793
1711795437380816100,7.444816162109375,0.2645229995250702,0.20796999335289001,0.20652799308300018
1711795437390465000,7.454465087890625,0.38905900716781616,0.2909950017929077,0.15777699649333954
1711795437400114200,7.4641142578125,0.4029169976711273,0.33029401302337646,0.21316200494766235
1711795437409763800,7.473763916015625,0.2569819986820221,0.38790300488471985,0.23892900347709656
1711795437419413000,7.4834130859375,0.09443199634552002,0.43676701188087463,0.29280200600624084
1711795437429062000,7.493061767578125,0.032791998237371445,0.533614993095398,0.2505530118942261
1711795437438711600,7.502711669921875,-0.07468699663877487,0.6198830008506775,0.16883599758148193
1711795437448360400,7.5123603515625,-0.24325299263000488,0.6236460208892822,0.09590300172567368
1711795437458009600,7.522009521484375,-0.22786399722099304,0.6812319755554199,0.09774100035429001
1711795437467659000,7.531658935546875,-0.06926299631595612,0.671438992023468,0.05627899989485741
1711795437477308200,7.54130810546875,0.027842000126838684,0.6068249940872192,0.12689000368118286
1711795437486957300,7.550957275390625,0.10242799669504166,0.4896570146083832,0.2351830005645752
1711795437496606700,7.560606689453125,0.17189699411392212,0.46859100461006165,0.2743169963359833
1711795437506256000,7.570255859375,0.2591690123081207,0.4528540074825287,0.20515300333499908
1711795437515905000,7.579905029296875,0.23302699625492096,0.46080198884010315,0.16046500205993652
1711795437525554200,7.58955419921875,0.23824399709701538,0.41999000310897827,0.13660499453544617
1711795437535203300,7.599203369140625,0.2940100133419037,0.385998010635376,0.1494320034980774
1711795437544852500,7.6088525390625,0.3805370032787323,0.3749679923057556,0.14159199595451355
1711795437554501600,7.618501708984375,0.4640220105648041,0.36580801010131836,0.08691000193357468
1711795437564151000,7.628151123046875,0.5364540219306946,0.32996198534965515,0.01723399944603443
1711795437573800200,7.63780029296875,0.6066470146179199,0.387611985206604,0.01413000002503395
1711795437583449300,7.647449462890625,0.49112799763679504,0.5022600293159485,0.04874400049448013
1711795437593098800,7.6570986328125,0.39859700202941895,0.5156880021095276,0.1280139982700348
1711795437602748000,7.666747802734375,0.28300198912620544,0.40036699175834656,0.14574000239372253
1711795437612397000,7.67639697265625,0.25856301188468933,0.3186900019645691,-0.018087999895215034
1711795437622046200,7.686046142578125,0.23544199764728546,0.2302580028772354,-0.0802680030465126
1711795437631695600,7.695695556640625,0.25017601251602173,0.15683600306510925,-0.0667639970779419
1711795437641344800,7.7053447265625,0.3867439925670624,0.14104899764060974,-0.07499700039625168
1711795437650994000,7.714993896484375,0.6578649878501892,0.06523600220680237,-0.08560200035572052
1711795437660643000,7.72464306640625,0.8704130053520203,-0.08673799782991409,-0.10175000131130219
1711795437670292200,7.734292236328125,1.0587799549102783,-0.13021700084209442,-0.1523520052433014
1711795437679941600,7.743941650390625,1.0525230169296265,-0.16819700598716736,-0.12931999564170837
1711795437689590800,7.7535908203125,0.9286100268363953,-0.22959299385547638,-0.10357599705457687
1711795437699240200,7.763240234375,0.7052410244941711,-0.2840209901332855,-0.07641799747943878
1711795437708889300,7.772889404296875,0.5006150007247925,-0.40441301465034485,-0.0845630019903183
1711795437718538200,7.782538330078125,0.34450799226760864,-0.44068700075149536,-0.21781200170516968
1711795437728187600,7.792187744140625,0.20783500373363495,-0.42368799448013306,-0.312065988779068
1711795437737836800,7.8018369140625,0.10684999823570251,-0.4091860055923462,-0.418938010931015
1711795437747486000,7.81148583984375,0.2020370066165924,-0.3807399868965149,-0.4514879882335663
1711795437757135400,7.82113525390625,0.4147379994392395,-0.4093419909477234,-0.41330501437187195
1711795437766784500,7.830784423828125,0.5658770203590393,-0.5254780054092407,-0.41007599234580994
1711795437776433700,7.84043359375,0.4787819981575012,-0.5801399946212769,-0.4612500071525574
1711795437786082800,7.850082763671875,0.23623600602149963,-0.6486420035362244,-0.5568730235099792
1711795437795732000,7.85973193359375,-0.1227400004863739,-0.6646080017089844,-0.5789740085601807
1711795437805381400,7.86938134765625,-0.5564579963684082,-0.6895530223846436,-0.5989320278167725
1711795437815030300,7.8790302734375,-0.6439160108566284,-0.6863250136375427,-0.5288580060005188
1711795437824679400,7.888679443359375,-0.6032180190086365,-0.6308929920196533,-0.600820004940033
1711795437834328800,7.898328857421875,-0.5014749765396118,-0.6047090291976929,-0.6165559887886047
1711795437843978000,7.90797802734375,-0.3266479969024658,-0.6465950012207031,-0.6434590220451355
1711795437853627100,7.917627197265625,-0.09128200262784958,-0.6850000023841858,-0.5670549869537354
1711795437863276500,7.927276611328125,0.2735550105571747,-0.7087780237197876,-0.4867660105228424
1711795437872925700,7.93692578125,0.46800899505615234,-0.7033050060272217,-0.3876520097255707
1711795437882574800,7.946574951171875,0.49354299902915955,-0.6385419964790344,-0.421548992395401
1711795437892224000,7.95622412109375,0.3919129967689514,-0.5712670087814331,-0.3792090117931366
1711795437901873400,7.965873291015625,0.1879339963197708,-0.49193400144577026,-0.386368989944458
1711795437911522600,7.9755224609375,-0.018045999109745026,-0.34405601024627686,-0.42010000348091125
1711795437921171700,7.985171630859375,-0.19331300258636475,-0.3285070061683655,-0.4382829964160919
1711795437930820900,7.99482080078125,-0.3298270106315613,-0.2981570065021515,-0.3915669918060303
1711795437940470300,8.00447021484375,-0.3419409990310669,-0.22648300230503082,-0.37243399024009705
1711795437950119400,8.014119384765625,-0.3826099932193756,-0.18613199889659882,-0.3340640068054199
1711795437959768600,8.0237685546875,-0.28645700216293335,-0.055734001100063324,-0.29069799184799194
1711795437969418000,8.03341796875,-0.27126801013946533,0.02983199991285801,-0.19445399940013885
1711795437979067100,8.043067138671875,-0.3932330012321472,0.06633699685335159,-0.0671439990401268
1711795437988716300,8.05271630859375,-0.4599350094795227,0.016527999192476273,-0.01762400008738041
1711795437998365400,8.062365478515625,-0.5007280111312866,0.0158890001475811,-0.10384400188922882
1711795438008014600,8.0720146484375,-0.5277900099754333,-0.012144999578595161,-0.1520099937915802
1711795438017664000,8.0816640625,-0.461217999458313,-0.12548300623893738,-0.15703900158405304
1711795438027313200,8.091313232421875,-0.3428939878940582,-0.20753300189971924,-0.15365399420261383
1711795438036962300,8.10096240234375,-0.2241789996623993,-0.2922140061855316,-0.12165199965238571
1711795438046611500,8.110611572265626,0.06756799668073654,-0.3225870132446289,-0.009019999764859676
1711795438056260600,8.120260498046875,0.3484640121459961,-0.261011004447937,0.09101100265979767
1711795438065910000,8.129909912109374,0.518871009349823,-0.1606930047273636,0.14425499737262726
1711795438075559200,8.13955908203125,0.7191969752311707,-0.1731480062007904,0.23797999322414398
1711795438085208300,8.149208251953125,0.8507480025291443,-0.11212000250816345,0.25248101353645325
1711795438094857700,8.158857666015624,0.7809820175170898,-0.004300999920815229,0.17532800137996674
1711795438104506600,8.168506591796875,0.6860740184783936,0.18317000567913055,0.08144299685955048
1711795438114155800,8.17815576171875,0.3870129883289337,0.2878269851207733,0.07097399979829788
1711795438123805200,8.18780517578125,-0.04494699835777283,0.31359899044036865,0.040072001516819
1711795438133454300,8.197454345703125,-0.47950199246406555,0.4130760133266449,0.03536500036716461
1711795438143103700,8.207103759765625,-0.7725390195846558,0.4749870002269745,0.02769099920988083
1711795438152753000,8.2167529296875,-0.9080430269241333,0.5381690263748169,0.06269499659538269
1711795438162402000,8.226402099609375,-0.8741379976272583,0.5606709718704224,0.11749400198459625
1711795438172051200,8.23605126953125,-0.7929520010948181,0.5643090009689331,0.03168899938464165
1711795438181700400,8.245700439453126,-0.6925070285797119,0.5439379811286926,0.002087000058963895
1711795438191349800,8.255349853515625,-0.5441700220108032,0.4448150098323822,0.013611000031232834
1711795438200999000,8.2649990234375,-0.2696009874343872,0.40333500504493713,0.010418999940156937
1711795438210648000,8.27464794921875,-0.04001599922776222,0.38907700777053833,0.020368000492453575
1711795438220297500,8.28429736328125,0.08358299732208252,0.3416000008583069,0.013937000185251236
1711795438229946600,8.293946533203124,0.09556099772453308,0.3389979898929596,-0.00672899978235364
1711795438239595800,8.303595703125,0.1786089986562729,0.31685298681259155,0.03801500052213669
1711795438249245000,8.313244873046875,0.2324180006980896,0.3079479932785034,0.07071799784898758
1711795438258894300,8.322894287109374,0.19390399754047394,0.29289600253105164,0.03256699815392494
1711795438268543200,8.332543212890625,0.07202299684286118,0.3295789957046509,-0.0312809981405735
1711795438278192400,8.3421923828125,-0.14064399898052216,0.39111799001693726,-0.07593200355768204
1711795438287841800,8.351841796875,-0.41133400797843933,0.46230998635292053,-0.11077400296926498
1711795438297491200,8.3614912109375,-0.5270299911499023,0.43283799290657043,-0.09720399975776672
1711795438307140000,8.37114013671875,-0.49835801124572754,0.4515039920806885,-0.07420200109481812
1711795438316789500,8.38078955078125,-0.42364001274108887,0.4658930003643036,-0.04631999880075455
1711795438326438700,8.390438720703125,-0.2727699875831604,0.5277429819107056,-0.046105001121759415
1711795438336087800,8.400087890625,-0.07510700076818466,0.5682849884033203,-0.04284700006246567
1711795438345737000,8.409737060546876,-0.005588000174611807,0.6009619832038879,-0.0023769999388605356
1711795438355386000,8.41938623046875,0.057169001549482346,0.6355980038642883,-0.029906999319791794
1711795438365035500,8.429035400390624,-0.04943099990487099,0.6498299837112427,-0.04739600047469139
1711795438374684700,8.4386845703125,-0.05384200066328049,0.599373996257782,-0.04849499836564064
1711795438384333800,8.448333740234375,-0.05109399929642677,0.6120579838752747,-0.0937729999423027
1711795438393983000,8.45798291015625,-0.000910000002477318,0.6172549724578857,-0.09342499822378159
1711795438403632000,8.467632080078126,0.04215399920940399,0.5380319952964783,-0.09977900236845016
1711795438413281300,8.47728125,0.2661280035972595,0.46614500880241394,-0.10031600296497345
1711795438422930700,8.4869306640625,0.41730600595474243,0.4188239872455597,-0.09427200257778168
1711795438432579800,8.496579833984375,0.3541190028190613,0.39407700300216675,-0.10825199633836746
1711795438442229000,8.50622900390625,0.41028299927711487,0.39951199293136597,-0.07112099975347519
1711795438451878100,8.515878173828124,0.5779489874839783,0.32405298948287964,-0.04287000000476837
1711795438461527600,8.525527587890625,0.7166129946708679,0.2984449863433838,-0.11263599991798401
1711795438471176700,8.5351767578125,0.84306401014328,0.26559099555015564,-0.1327819973230362
1711795438480825900,8.544825927734376,0.9422129988670349,0.30172601342201233,-0.13301299512386322
1711795438490475300,8.554475341796875,0.9216359853744507,0.3650749921798706,-0.08674100041389465
1711795438500124400,8.56412451171875,0.7774670124053955,0.37940698862075806,-0.045625001192092896
1711795438509773600,8.573773681640626,0.4998930096626282,0.313042014837265,-0.06985499709844589
1711795438519423000,8.583423095703125,0.273934006690979,0.2334280014038086,-0.11531999707221985
1711795438529072000,8.593072021484375,-0.01804099977016449,0.25346899032592773,-0.16697199642658234
1711795438538721000,8.602720947265626,-0.19250300526618958,0.22866199910640717,-0.17374099791049957
1711795438548370400,8.612370361328125,-0.026256000623106956,0.1885489970445633,-0.2162729948759079
1711795438558019600,8.62201953125,0.14914700388908386,0.05947300046682358,-0.19862599670886993
1711795438567669000,8.6316689453125,0.44279199838638306,-0.06429299712181091,-0.09014999866485596
1711795438577318100,8.641318115234375,0.8193619847297668,-0.15215499699115753,0.04422900080680847
1711795438586967300,8.65096728515625,1.2317010164260864,-0.14833000302314758,0.04221000149846077
1711795438596616400,8.660616455078125,1.5540519952774048,-0.2229599952697754,0.05443499982357025
1711795438606265600,8.670265625,1.6389820575714111,-0.2829819917678833,0.05897599831223488
1711795438615915000,8.6799150390625,1.63680899143219,-0.39523598551750183,0.06278900057077408
1711795438625564200,8.689564208984375,1.6135849952697754,-0.5119929909706116,0.09901899844408035
1711795438635213300,8.69921337890625,1.4643110036849976,-0.46012499928474426,0.08099500089883804
1711795438644862500,8.708862548828124,1.1052340269088745,-0.40807899832725525,0.12108699977397919
1711795438654511900,8.718511962890625,0.6583240032196045,-0.42055100202560425,0.222680002450943
1711795438664161000,8.7281611328125,0.3434019982814789,-0.3572770059108734,0.1926790028810501
1711795438673810000,8.737809814453126,0.0334630012512207,-0.4145059883594513,0.21803000569343567
1711795438683459300,8.747459228515625,-0.07797800004482269,-0.49673500657081604,0.308230996131897
1711795438693108500,8.7571083984375,0.020560000091791153,-0.635250985622406,0.42050600051879883
1711795438702757600,8.766757568359376,0.1931529939174652,-0.612185001373291,0.36177799105644226
1711795438712407000,8.776406982421875,0.2916080057621002,-0.6959059834480286,0.36540499329566956
1711795438722056200,8.78605615234375,0.27135300636291504,-0.7975530028343201,0.43664899468421936
1711795438731705300,8.795705322265626,0.20631900429725647,-0.8946700096130371,0.6144559979438782
1711795438741354500,8.8053544921875,-0.04620800167322159,-0.9354199767112732,0.7036880254745483
1711795438751003600,8.815003662109374,-0.27503499388694763,-0.9488189816474915,0.7812870144844055
1711795438760653000,8.824653076171876,-0.499424010515213,-0.8969489932060242,0.6525480151176453
1711795438770302200,8.83430224609375,-0.5791450142860413,-0.9071779847145081,0.50211501121521
1711795438779951600,8.84395166015625,-0.6124569773674011,-0.8047440052032471,0.3986339867115021
1711795438789600800,8.853600830078125,-0.5293769836425781,-0.8133040070533752,0.45035800337791443
1711795438799250000,8.86325,-0.3588629961013794,-0.7769140005111694,0.4363490045070648
1711795438808899000,8.872899169921874,-0.2488189935684204,-0.8257989883422852,0.5211099982261658
1711795438818548200,8.88254833984375,-0.15965500473976135,-0.7621909976005554,0.5927780270576477
1711795438828197400,8.892197265625,-0.19915300607681274,-0.798321008682251,0.6033939719200134
1711795438837846800,8.9018466796875,-0.35436201095581055,-0.7644680142402649,0.5594189763069153
1711795438847496000,8.911495849609375,-0.5569040179252625,-0.7201619744300842,0.5218930244445801
1711795438857145000,8.92114501953125,-0.7778990268707275,-0.6562219858169556,0.5398380160331726
1711795438866794200,8.930794189453126,-0.8990510106086731,-0.5687689781188965,0.49900299310684204
1711795438876443400,8.940443359375,-0.9272779822349548,-0.4084619879722595,0.34982699155807495
1711795438886092800,8.9500927734375,-1.049765944480896,-0.28583601117134094,0.2243800014257431
1711795438895742000,8.959741943359376,-1.0779869556427002,-0.24997499585151672,0.15431900322437286
1711795438905391000,8.96939111328125,-0.94371098279953,-0.22523200511932373,0.08444199711084366
1711795438915040300,8.979040283203124,-0.7299410104751587,-0.25450399518013,0.08986199647188187
1711795438924689700,8.988689697265626,-0.46129000186920166,-0.2602280080318451,0.08973699808120728
1711795438934338600,8.998338623046875,-0.22262300550937653,-0.2620849907398224,0.0575140006840229
1711795438943987700,9.00798779296875,0.08618699759244919,-0.3305700123310089,0.05604900047183037
1711795438953637400,9.017637451171876,0.4462510049343109,-0.28356999158859253,0.014405000023543835
1711795438963286300,9.027286376953125,0.6058220267295837,-0.19102199375629425,-0.0412760004401207
1711795438972935700,9.036935791015624,0.6009020209312439,-0.09317900240421295,-0.08971899747848511
1711795438982584800,9.046584716796875,0.48962798714637756,0.058024998754262924,-0.17184799909591675
1711795438992234000,9.05623388671875,0.31193700432777405,0.1816439926624298,-0.18686999380588531
1711795439001883100,9.065883056640626,0.05229499936103821,0.25490498542785645,-0.21247999370098114
1711795439011532300,9.0755322265625,-0.21759000420570374,0.3032029867172241,-0.1840600073337555
1711795439021181700,9.085181640625,-0.38115400075912476,0.41157498955726624,-0.2189510017633438
1711795439030830800,9.094830810546876,-0.5265089869499207,0.41902899742126465,-0.25006499886512756
1711795439040480000,9.10447998046875,-0.7038130164146423,0.40493500232696533,-0.2539829909801483
1711795439050129400,9.11412939453125,-0.7135760188102722,0.3624649941921234,-0.24187800288200378
1711795439059778600,9.123778564453126,-0.6328999996185303,0.42124301195144653,-0.18880599737167358
1711795439069427700,9.133427734375,-0.5610179901123047,0.4350839853286743,-0.1923159956932068
1711795439079077000,9.1430771484375,-0.35834699869155884,0.4295409917831421,-0.2345000058412552
1711795439088726300,9.152726318359376,-0.20747800171375275,0.2976419925689697,-0.17262600362300873
1711795439098375200,9.162375244140625,-0.14145100116729736,0.1865600049495697,-0.09596099704504013
1711795439108024600,9.172024658203124,-0.06013600155711174,0.17405100166797638,-0.05778000131249428
1711795439117674000,9.181674072265626,-0.007703999988734722,0.0494920015335083,-0.009228999726474285
1711795439127323000,9.191322998046875,0.03125,0.04660100117325783,-0.02742600068449974
1711795439136972300,9.20097216796875,0.05601299926638603,0.08839599788188934,-0.04669399932026863
1711795439146621400,9.210621337890625,0.18980200588703156,0.04781100153923035,-0.03447699919342995
1711795439156270600,9.2202705078125,0.28275299072265625,0.07541099935770035,0.03221600130200386
1711795439165919700,9.229919677734374,0.41727501153945923,0.08548600226640701,0.09415599703788757
1711795439175569200,9.239569091796875,0.5658640265464783,0.13320399820804596,0.10666999965906143
1711795439185218300,9.24921826171875,0.5537940263748169,0.27251699566841125,0.07248199731111526
1711795439194867500,9.258867431640626,0.35042598843574524,0.38850000500679016,0.02611600048840046
1711795439204516900,9.268516845703125,0.13872399926185608,0.4577150046825409,-0.006606999784708023
1711795439214166000,9.278166015625,-0.11712300032377243,0.5616850256919861,0.014464999549090862
1711795439223815000,9.28781494140625,-0.3518590033054352,0.6076650023460388,0.04593899846076965
1711795439233464300,9.29746435546875,-0.48441898822784424,0.6540769934654236,0.025397999212145805
1711795439243113500,9.307113525390625,-0.6086050271987915,0.6671620011329651,0.015595000237226486
1711795439252762600,9.3167626953125,-0.7281919717788696,0.7457559704780579,-0.009128999896347523
1711795439262411800,9.326411865234375,-0.8925690054893494,0.7043099999427795,0.018073000013828278
1711795439272061200,9.336061279296874,-0.9047039747238159,0.7099120020866394,-0.032680999487638474
1711795439281710300,9.34571044921875,-0.7176420092582703,0.6573500037193298,-0.08649300038814545
1711795439291359500,9.355359375,-0.4726170003414154,0.6032029986381531,-0.09990499913692474
1711795439301008600,9.365008544921874,-0.0859680026769638,0.5077750086784363,-0.11534000188112259
1711795439310658000,9.374657958984375,0.18593299388885498,0.5102220177650452,-0.10904599726200104
1711795439320307200,9.38430712890625,0.31342199444770813,0.4992839992046356,-0.034074001014232635
1711795439329956400,9.393956298828124,0.31417301297187805,0.5230349898338318,0.03737099841237068
1711795439339605500,9.40360546875,0.11674299836158752,0.502905011177063,0.04761600121855736
1711795439349255000,9.4132548828125,-0.1543930023908615,0.5514289736747742,-0.03832399845123291
1711795439358903800,9.42290380859375,-0.28194499015808105,0.550931990146637,-0.06637900322675705
1711795439368553000,9.432552978515625,-0.21338699758052826,0.5627189874649048,-0.029947999864816666
1711795439378202400,9.442202392578125,-0.043519001454114914,0.5327730178833008,-0.018679000437259674
1711795439387851800,9.451851806640626,0.11932100355625153,0.5497699975967407,0.0608460009098053
1711795439397501000,9.4615009765625,0.3693560063838959,0.5544329881668091,0.1193929985165596
1711795439407150000,9.471150146484375,0.46428799629211426,0.5160499811172485,0.2524459958076477
1711795439416799200,9.48079931640625,0.49630799889564514,0.520717978477478,0.2581689953804016
1711795439426448400,9.490448486328125,0.4015749990940094,0.5726649761199951,0.2359600067138672
1711795439436097500,9.50009765625,0.2588900029659271,0.5530949831008911,0.25090599060058594
1711795439445746700,9.50974658203125,0.13760000467300415,0.6834920048713684,0.21070800721645355
1711795439455396000,9.51939599609375,0.09288900345563889,0.6802340149879456,0.1990949958562851
1711795439465045000,9.529044921875,0.1623689979314804,0.7014229893684387,0.17245399951934814
1711795439474694100,9.538694091796875,0.22626300156116486,0.7007269859313965,0.22648300230503082
1711795439484343800,9.54834375,0.32271501421928406,0.7367150187492371,0.3462739884853363
1711795439493992700,9.55799267578125,0.4951089918613434,0.7387130260467529,0.33489400148391724
1711795439503641900,9.567641845703125,0.6737499833106995,0.7863770127296448,0.3266099989414215
1711795439513291300,9.577291259765625,0.8195800185203552,0.7867239713668823,0.32416900992393494
1711795439522940400,9.5869404296875,0.7549269795417786,0.7724850177764893,0.30964699387550354
1711795439532589600,9.596589599609375,0.6731820106506348,0.8264819979667664,0.24128100275993347
1711795439542238700,9.60623876953125,0.5298359990119934,0.9642969965934753,0.21594500541687012
1711795439551888100,9.61588818359375,0.34498199820518494,0.9161310195922852,0.17065900564193726
1711795439561537300,9.625537353515625,0.18976299464702606,0.667123019695282,0.02530200034379959
1711795439571186400,9.6351865234375,0.07984700053930283,0.4290030002593994,-0.17893999814987183
1711795439580835600,9.644835693359376,-0.03755100071430206,0.3558030128479004,-0.28844499588012695
1711795439590484700,9.654484619140625,0.1590290069580078,0.25241801142692566,-0.2316180020570755
1711795439600134100,9.664134033203124,0.6092990040779114,0.07269900292158127,-0.26661598682403564
1711795439609783300,9.673783203125,1.0510419607162476,-0.11740200221538544,-0.3603459894657135
1711795439619432700,9.6834326171875,1.4164550304412842,-0.38101398944854736,-0.5023890137672424
1711795439629081900,9.693081787109374,1.658869981765747,-0.5791029930114746,-0.5480719804763794
1711795439638730800,9.702730712890625,1.766787052154541,-0.8200430274009705,-0.5309489965438843
1711795439648380000,9.7123798828125,1.7769889831542969,-0.9044309854507446,-0.43987300992012024
1711795439658029300,9.722029296875,1.4530030488967896,-0.8743780255317688,-0.4310080111026764
1711795439667678500,9.731678466796875,1.0476369857788086,-0.8742859959602356,-0.28772398829460144
1711795439677327600,9.74132763671875,0.7544220089912415,-0.8576560020446777,-0.315324991941452
1711795439686977000,9.75097705078125,0.2575860023498535,-0.8588410019874573,-0.3921850025653839
1711795439696626200,9.760626220703125,0.08745300024747849,-0.9384750127792358,-0.49814000725746155
1711795439706275300,9.770275390625,-0.27448999881744385,-0.9343839883804321,-0.5733829736709595
1711795439715924700,9.7799248046875,-0.7192530035972595,-1.0175039768218994,-0.4836460053920746
1711795439725574000,9.789573974609375,-0.784430980682373,-1.027318000793457,-0.34170299768447876
1711795439735222800,9.799222900390625,-0.6466389894485474,-1.1253770589828491,-0.2539060115814209
1711795439744872200,9.8088720703125,-0.6622869968414307,-1.154811978340149,-0.17556999623775482
1711795439754521300,9.818521240234375,-0.47231701016426086,-1.3539350032806396,-0.05670100077986717
1711795439764170500,9.82817041015625,-0.11072099953889847,-1.2835299968719482,-0.16757699847221375
1711795439773820000,9.83781982421875,0.009979000315070152,-1.3009079694747925,-0.3022899925708771
1711795439783469000,9.847468994140625,-0.21316500008106232,-1.2328740358352661,-0.38527101278305054
1711795439793118200,9.8571181640625,-0.5282359719276428,-1.2369999885559082,-0.544215977191925
1711795439802767400,9.866767333984376,-0.5308610200881958,-1.0853749513626099,-0.6305279731750488
1711795439812416800,9.876416748046875,-0.5058630108833313,-0.9790470004081726,-0.688044011592865
1711795439822065700,9.886065673828124,-0.6285930275917053,-0.8899909853935242,-0.5868489742279053
1711795439831715000,9.895715087890625,-0.6732460260391235,-0.8437880277633667,-0.6168400049209595
1711795439841364500,9.905364501953125,-0.5916839838027954,-0.7659720182418823,-0.6157280206680298
1711795439851013400,9.915013427734374,-0.542493999004364,-0.6852269768714905,-0.6339709758758545
1711795439860662500,9.92466259765625,-0.4868980050086975,-0.6244580149650574,-0.6326940059661865
1711795439870312000,9.93431201171875,-0.36996200680732727,-0.6633639931678772,-0.682403028011322
1711795439879961000,9.943961181640624,-0.3018780052661896,-0.7130650281906128,-0.651112973690033
1711795439889610200,9.9536103515625,-0.33516600728034973,-0.7604449987411499,-0.5547080039978027
1711795439899259600,9.963259765625,-0.29497799277305603,-0.7982289791107178,-0.3714050054550171
1711795439908908800,9.97290869140625,-0.2065269947052002,-0.8506789803504944,-0.2687950134277344
1711795439918558000,9.982557861328125,-0.24807199835777283,-0.7845349907875061,-0.24767999351024628
1711795439928206800,9.992206787109374,-0.26899299025535583,-0.7479239702224731,-0.2793779969215393
1711795439937856300,10.001856201171876,-0.21346299350261688,-0.6970850229263306,-0.1967329978942871
1711795439947505700,10.011505615234375,-0.015554999932646751,-0.5517539978027344,-0.14708399772644043
1711795439957154600,10.021154541015624,0.07071699947118759,-0.4497070014476776,-0.039342001080513
1711795439966803700,10.0308037109375,0.17439399659633636,-0.37546101212501526,-0.0027020000852644444
1711795439976453000,10.040453125,0.3847790062427521,-0.3610830008983612,0.11886999756097794
1711795439986102300,10.050102294921874,0.6119170188903809,-0.3172279894351959,0.09469199925661087
1711795439995751400,10.05975146484375,0.701960027217865,-0.18178099393844604,0.061824001371860504
1711795440005400600,10.069400634765625,0.7668030261993408,-0.037801001220941544,0.014343000017106533
1711795440015050000,10.079050048828124,0.6961119771003723,0.057753998786211014,0.03968299925327301
1711795440024699100,10.08869921875,0.4080829918384552,0.160739004611969,0.04871299862861633
1711795440034348000,10.09834814453125,0.13517199456691742,0.205144003033638,0.06396699696779251
1711795440043997200,10.1079970703125,-0.056756000965833664,0.244936004281044,0.04106200113892555
1711795440053646600,10.117646484375,-0.206277996301651,0.22670499980449677,-0.007505000103265047
1711795440063295700,10.127295654296875,-0.3572140038013458,0.22449499368667603,-0.07062199711799622
1711795440072945000,10.13694482421875,-0.3980410099029541,0.20980200171470642,-0.0756319984793663
1711795440082594000,10.146593994140625,-0.359017014503479,0.20215700566768646,-0.1704780012369156
1711795440092243500,10.156243408203125,-0.23697100579738617,0.26369601488113403,-0.300911009311676
1711795440101892600,10.165892578125,0.06015000119805336,0.25174999237060547,-0.42195698618888855
1711795440111541800,10.175541748046875,0.5081750154495239,0.21814100444316864,-0.5094640254974365
1711795440121191200,10.185191162109374,1.023447036743164,0.1924230009317398,-0.6099510192871094
1711795440130840300,10.19484033203125,1.4036680459976196,0.15859200060367584,-0.6604089736938477
1711795440140489500,10.204489501953125,1.4979150295257568,0.05025099962949753,-0.6091870069503784
1711795440150139000,10.214138916015624,1.4165079593658447,0.14651800692081451,-0.5845999717712402
1711795440159788000,10.2237880859375,1.1308640241622925,0.15289300680160522,-0.5935720205307007
1711795440169437200,10.233437255859375,0.9427649974822998,0.3145669996738434,-0.705810010433197
1711795440179086300,10.24308642578125,0.5761399865150452,0.4859820008277893,-0.8769930005073547
1711795440188735500,10.252735595703125,0.06412900239229202,0.6301140189170837,-0.9633610248565674
1711795440198384600,10.262384521484375,-0.26131299138069153,0.758916974067688,-0.9413530230522156
1711795440208033800,10.27203369140625,-0.35028401017189026,0.6966739892959595,-0.8484330177307129
1711795440217683200,10.28168310546875,-0.2269590049982071,0.7404699921607971,-0.9424030184745789
1711795440227332000,10.29133203125,-0.3301120102405548,0.6918140053749084,-0.9085879921913147
1711795440236981200,10.300981201171876,-0.2350499927997589,0.584492027759552,-0.8860340118408203
1711795440246630700,10.310630615234375,0.08201400190591812,0.521996021270752,-0.9506250023841858
1711795440256279800,10.32027978515625,0.4759489893913269,0.47974199056625366,-1.0947500467300415
1711795440265929000,10.329928955078126,0.6826679706573486,0.3312140107154846,-1.1316649913787842
1711795440275578400,10.339578369140625,1.0358829498291016,0.23652000725269318,-1.1597959995269775
1711795440285227500,10.3492275390625,1.269929051399231,0.16442300379276276,-1.2454530000686646
1711795440294876700,10.358876708984376,1.6106719970703125,0.018859999254345894,-1.3956199884414673
1711795440304525800,10.36852587890625,1.77736496925354,-0.0024470000062137842,-1.3511580228805542
1711795440314175200,10.37817529296875,1.5880069732666016,0.010967999696731567,-1.4877150058746338
1711795440323824400,10.387824462890626,1.3490550518035889,0.020468000322580338,-1.5641989707946777
1711795440333473300,10.397473388671875,1.0250940322875977,0.13581299781799316,-1.6686359643936157
1711795440343122400,10.407122314453124,0.7215229868888855,0.11953700333833694,-1.6205129623413086
1711795440352771800,10.416771728515625,0.5759819746017456,0.03095100075006485,-1.5801270008087158
1711795440362421000,10.4264208984375,0.40882399678230286,-0.02715500071644783,-1.4606740474700928
1711795440372070100,10.436070068359374,0.3045159876346588,-0.10583899915218353,-1.3993079662322998
1711795440381719600,10.445719482421875,0.18881599605083466,-0.28585299849510193,-1.140848994255066
1711795440391368700,10.45536865234375,0.15182800590991974,-0.4020789861679077,-0.980230987071991
1711795440401017900,10.465017822265626,-0.11748900264501572,-0.5094919800758362,-0.8518199920654297
1711795440410667000,10.4746669921875,-0.5501840114593506,-0.5761269927024841,-0.7164850234985352
1711795440420316400,10.48431640625,-0.7537130117416382,-0.7440310120582581,-0.5810440182685852
1711795440429965600,10.493965576171876,-0.8586270213127136,-0.7184249758720398,-0.49825599789619446
1711795440439614700,10.50361474609375,-0.5583660006523132,-0.8168380260467529,-0.435683012008667
1711795440449264000,10.51326416015625,-0.4982210099697113,-0.7024409770965576,-0.47231200337409973
1711795440458913000,10.5229130859375,-0.14110399782657623,-0.7077029943466187,-0.4598119854927063
1711795440468562200,10.532562255859375,0.11093699932098389,-0.7161440253257751,-0.44680899381637573
1711795440478211300,10.54221142578125,0.4806259870529175,-0.7728080153465271,-0.3522239923477173
1711795440487860700,10.55186083984375,0.6643249988555908,-0.8812649846076965,-0.13329799473285675
1711795440497510000,10.561510009765625,0.7434030175209045,-0.9472050070762634,0.016049999743700027
1711795440507159000,10.571158935546874,0.8723840117454529,-1.0508320331573486,0.07074999809265137
1711795440516808400,10.580808349609375,0.09659499675035477,-1.00320303440094,-0.334320992231369
1711795440526457300,10.590457275390625,-0.34755098819732666,-1.0691759586334229,0.1415870040655136
1711795440536106500,10.6001064453125,-0.6501420140266418,-1.0694639682769775,-0.08247300237417221
1711795440545756200,10.609756103515625,-0.508558988571167,-1.1056280136108398,0.23330700397491455
1711795440555405000,10.619405029296875,-0.6351360082626343,-1.0498039722442627,0.1383640021085739
1711795440565054200,10.62905419921875,-0.6300140023231506,-1.2704089879989624,0.45947501063346863
1711795440574703600,10.63870361328125,-0.7078289985656738,-1.2583969831466675,0.5208110213279724
1711795440584352800,10.648352783203125,-0.4991230070590973,-1.4125460386276245,0.6059319972991943
1711795440594001700,10.658001708984376,-0.2373560070991516,-1.3832639455795288,0.5687040090560913
1711795440603650800,10.66765087890625,-0.028207000344991684,-1.449133038520813,0.666068971157074
1711795440613300200,10.67730029296875,-0.000035000000934815034,-1.5315489768981934,0.8779540061950684
1711795440622949400,10.686949462890626,-0.034735001623630524,-1.5844119787216187,0.9591599702835083
1711795440632598500,10.6965986328125,-0.18465499579906464,-1.594552993774414,1.148000955581665
1711795440642247700,10.70624755859375,-0.056421998888254166,-1.5880680084228516,1.1892930269241333
1711795440651897000,10.71589697265625,0.041453998535871506,-1.4136179685592651,1.0216120481491089
1711795440661546200,10.725546142578125,0.10286899656057358,-1.5558470487594604,1.183061957359314
1711795440671195400,10.7351953125,0.33793801069259644,-1.424962043762207,1.2211430072784424
1711795440680844800,10.7448447265625,0.5506259799003601,-1.4628360271453857,1.2665419578552246
1711795440690493700,10.75449365234375,0.35128098726272583,-1.341981053352356,1.1277790069580078
1711795440700142800,10.764142822265624,0.01686999946832657,-1.421097993850708,1.3308459520339966
1711795440709792500,10.77379248046875,0.0026519999373704195,-1.3723679780960083,1.3833889961242676
1711795440719441400,10.78344140625,0.142316997051239,-1.3892749547958374,1.585906982421875
1711795440729090600,10.793090576171876,0.4273959994316101,-1.2775789499282837,1.6119179725646973
1711795440738739700,10.80273974609375,0.6090270280838013,-1.1625200510025024,1.726477026939392
1711795440748388900,10.812388916015625,0.691893994808197,-1.0475419759750366,1.789033055305481
1711795440758038300,10.822038330078126,0.47855299711227417,-0.9019520282745361,1.9254209995269775
1711795440767687400,10.8316875,0.23455199599266052,-0.7053210139274597,1.8824139833450317
1711795440777336300,10.84133642578125,-0.008654000237584114,-0.779217004776001,1.7501579523086548
1711795440786985700,10.85098583984375,-0.1695519983768463,-0.6742110252380371,1.469351053237915
1711795440796635000,10.860634765625,-0.38648200035095215,-0.6325280070304871,1.4011759757995605
1711795440806284000,10.870283935546874,-0.6136559844017029,-0.5678020119667053,1.3495210409164429
1711795440815933200,10.87993310546875,-0.5716469883918762,-0.5146870017051697,1.4292019605636597
1711795440825582600,10.88958251953125,-0.4449000060558319,-0.49399200081825256,1.5131829977035522
1711795440835231700,10.899231689453124,-0.22666500508785248,-0.5341939926147461,1.7063349485397339
1711795440844881000,10.908880859375,0.02130799926817417,-0.48435500264167786,1.7088199853897095
1711795440854530000,10.918530029296875,0.19678500294685364,-0.4563170075416565,1.7255580425262451
1711795440864179200,10.92817919921875,0.09106399863958359,-0.4401620030403137,1.585474967956543
1711795440873828400,10.937828369140625,0.020735999569296837,-0.36603599786758423,1.6751099824905396
1711795440883477500,10.9474775390625,0.20226499438285828,-0.3911899924278259,1.7454349994659424
1711795440893127000,10.957126953125,0.7867980003356934,-0.3451870083808899,1.8204540014266968
1711795440902776000,10.966776123046875,1.2573740482330322,-0.2619690001010895,1.8009480237960815
1711795440912425200,10.97642529296875,1.4613380432128906,-0.22823399305343628,1.974478006362915
1711795440922074400,10.986074462890626,1.3608709573745728,-0.201991006731987,1.8997130393981934
1711795440931723500,10.9957236328125,1.196874976158142,-0.18019600212574005,1.8241239786148071
1711795440941373000,11.005373046875,0.7713519930839539,-0.050652001053094864,1.5431690216064453
1711795440951022000,11.01502197265625,0.4576230049133301,0.11287400126457214,1.441512942314148
1711795440960671200,11.024671142578125,1.014788031578064,0.12868599593639374,1.5476679801940918
1711795440970320400,11.0343203125,0.8520200252532959,0.1798270046710968,1.320986032485962
1711795440979969500,11.043969482421875,0.2675650119781494,0.32677701115608215,1.1334179639816284
1711795440989619000,11.053618896484375,-0.16713200509548187,0.3574090003967285,1.0812950134277344
1711795440999268000,11.06326806640625,-0.49207401275634766,0.43069198727607727,1.1688679456710815
1711795441008917200,11.072917236328125,-0.6549050211906433,0.5141540169715881,1.2444649934768677
1711795441018566400,11.08256640625,-0.7479659914970398,0.5528789758682251,1.1335090398788452
1711795441028215600,11.092215576171874,-0.6936659812927246,0.6375269889831543,0.9762510061264038
1711795441037864700,11.10186474609375,-0.6097260117530823,0.6287869811058044,0.7756649851799011
1711795441047513900,11.111513916015625,-0.6104789972305298,0.6813049912452698,0.679489016532898
1711795441057163300,11.121163330078126,-0.49984198808670044,0.6026350259780884,0.6988009810447693
1711795441066812400,11.1308125,-0.28308600187301636,0.621891975402832,0.757951021194458
1711795441076461600,11.140461669921875,-0.09092800319194794,0.5915079712867737,0.7406910061836243
1711795441086110500,11.1501103515625,0.08512800186872482,0.5141159892082214,0.8058500289916992
1711795441095760000,11.159759765625,0.1413699984550476,0.5393819808959961,0.7400950193405151
1711795441105409000,11.169408935546874,0.07265300303697586,0.6354640126228333,0.5789830088615417
1711795441115058200,11.17905810546875,0.04764999821782112,0.6364690065383911,0.3973180055618286
1711795441124707300,11.188707275390625,0.29229000210762024,0.6875759959220886,0.38007301092147827
1711795441134356500,11.1983564453125,0.5805829763412476,0.6842619776725769,0.3362399935722351
1711795441144005600,11.208005615234375,0.7029889822006226,0.6447039842605591,0.42173001170158386
1711795441153654800,11.21765478515625,0.6787239909172058,0.660286009311676,0.38970300555229187
1711795441163304200,11.22730419921875,0.5840089917182922,0.7321850061416626,0.3362720012664795
1711795441172953300,11.236953369140625,0.11160200089216232,0.6897850036621094,0.2407359927892685
1711795441182602500,11.2466025390625,-0.4047519862651825,0.8088859915733337,0.0516120009124279
1711795441192251600,11.256251708984376,-0.7394229769706726,0.8545950055122375,-0.04983000084757805
1711795441201900800,11.26590087890625,-1.092708945274353,0.8425499796867371,0.09227000176906586
1711795441211550000,11.275550048828125,-1.0189260244369507,0.7795940041542053,0.15308700501918793
1711795441221199000,11.28519921875,-0.6923990249633789,0.7825660109519958,0.08839800208806992
1711795441230848500,11.2948486328125,-0.2398039996623993,0.6428260207176208,0.1864050030708313
1711795441240497700,11.30449755859375,0.05880099907517433,0.5451629757881165,0.13173100352287292
1711795441250146800,11.314146728515626,0.36031201481819153,0.5394999980926514,0.07485099881887436
1711795441259796000,11.3237958984375,0.5504299998283386,0.47700899839401245,0.021803999319672585
1711795441269445400,11.3334453125,0.4844210147857666,0.4677880108356476,-0.002988999942317605
1711795441279094500,11.343094482421876,0.30748599767684937,0.43925800919532776,-0.003206999972462654
1711795441288743700,11.35274365234375,0.09164399653673172,0.3119339942932129,0.12246400117874146
1711795441298392800,11.362392822265624,0.4729459881782532,0.08268799632787704,0.44402599334716797
1711795441308042000,11.3720419921875,0.7039470076560974,-0.11781899631023407,0.4897969961166382
1711795441317691100,11.381691162109375,1.166867971420288,-0.058866001665592194,0.3051939904689789
1711795441327340300,11.39134033203125,1.3983529806137085,0.025492999702692032,0.1089949980378151
1711795441336989400,11.400989501953125,1.1680430173873901,0.2716340124607086,-0.09601999819278717
1711795441346638600,11.410638671875,0.844398021697998,0.32982999086380005,-0.12497399747371674
1711795441356287700,11.420287841796876,0.5611159801483154,0.3690420091152191,-0.06466499716043472
1711795441365937000,11.42993701171875,0.3336920142173767,0.2595280110836029,-0.04367399960756302
1711795441375586300,11.43958642578125,0.2817060053348541,0.19594399631023407,-0.0853009968996048
1711795441385235500,11.4492353515625,0.22975599765777588,0.2251179963350296,-0.23988300561904907
1711795441394884600,11.458884521484375,0.1624239981174469,0.15292300283908844,-0.344853013753891
1711795441404533800,11.46853369140625,0.33873701095581055,0.09873399883508682,-0.45819398760795593
1711795441414183000,11.478182861328126,0.5285549759864807,0.010214000009000301,-0.536628007888794
1711795441423832000,11.48783203125,0.6210700273513794,-0.0581509992480278,-0.5558769702911377
1711795441433481200,11.497481201171874,0.9607369899749756,-0.08363199979066849,-0.44665399193763733
1711795441443130400,11.50713037109375,0.9047979712486267,-0.03903200104832649,-0.41976198554039
1711795441452779800,11.51677978515625,0.8371899724006653,-0.11530199646949768,-0.5152260065078735
1711795441462428700,11.5264287109375,0.9312840104103088,-0.17744800448417664,-0.5705369710922241
1711795441472078300,11.536078369140625,0.9733179807662964,-0.16152900457382202,-0.7366229891777039
1711795441481727200,11.545727294921875,0.7820349931716919,-0.2261900007724762,-0.7191839814186096
1711795441491376400,11.55537646484375,0.6069210171699524,-0.22994199395179749,-0.7885199785232544
1711795441501025500,11.565025634765625,0.3767699897289276,-0.10606399923563004,-0.8618929982185364
1711795441510674700,11.5746748046875,0.12058199942111969,-0.08771099895238876,-0.9575780034065247
1711795441520324000,11.584323974609376,-0.02632400020956993,-0.028279999271035194,-0.8749020099639893
1711795441529973000,11.593972900390625,-0.18684299290180206,-0.10687500238418579,-0.7084050178527832
1711795441539622400,11.603622314453125,-0.23799599707126617,-0.03521899878978729,-0.6001120209693909
1711795441549271600,11.613271484375,-0.4121930003166199,0.010201999917626381,-0.5569109916687012
1711795441558920700,11.622920654296875,-0.7898179888725281,-0.02894200012087822,-0.4552929997444153
1711795441568569900,11.63256982421875,-1.0735080242156982,0.09012000262737274,-0.5303509831428528
1711795441578219000,11.642218994140626,-1.2462060451507568,-0.002584999892860651,-0.5693089962005615
1711795441587868400,11.651868408203125,-1.258226990699768,0.05742400139570236,-0.6157259941101074
1711795441597517600,11.661517578125,-1.2002190351486206,-0.022531000897288322,-0.5479750037193298
1711795441607166700,11.671166748046875,-0.722648024559021,-0.3480510115623474,-0.2580319941043854
1711795441616815900,11.68081591796875,-0.08511599898338318,-0.39843299984931946,-0.25684699416160583
1711795441626465000,11.690465087890624,0.4185679852962494,-0.41825801134109497,-0.34825199842453003
1711795441636114200,11.7001142578125,0.40171998739242554,-0.46495500206947327,-0.38576000928878784
1711795441645763300,11.709763427734375,0.19755899906158447,-0.4239780008792877,-0.5320129990577698
1711795441655412500,11.71941259765625,-0.12894800305366516,-0.34175199270248413,-0.6357150077819824
1711795441665061600,11.7290615234375,-0.19535599648952484,-0.282694011926651,-0.7882329821586609
1711795441674710800,11.738710693359375,-0.3684859871864319,-0.18992100656032562,-0.7760260105133057
1711795441684360200,11.748360107421876,-0.4883889853954315,-0.11957299709320068,-0.7006949782371521
1711795441694009300,11.75800927734375,-0.5790510177612305,-0.12601600587368011,-0.5577520132064819
1711795441703658200,11.767658203125,-0.6311169862747192,-0.11875099688768387,-0.5749499797821045
1711795441713307600,11.7773076171875,-0.5595120191574097,-0.1559389978647232,-0.49194300174713135
1711795441722956800,11.786956787109375,-0.42227599024772644,-0.0995040014386177,-0.5156980156898499
1711795441732606000,11.79660595703125,-0.2969039976596832,-0.02755199931561947,-0.46004000306129456
1711795441742255000,11.806255126953126,-0.24258600175380707,-0.07566999644041061,-0.3974289894104004
1711795441751904300,11.815904296875,-0.15875700116157532,0.011819999665021896,-0.43123099207878113
1711795441761553400,11.825553466796874,-0.07729300111532211,0.03315100073814392,-0.5316749811172485
1711795441771202600,11.83520263671875,0.14288300275802612,0.014336000196635723,-0.4665459990501404
1711795441780852000,11.84485205078125,0.18393300473690033,-0.03298899903893471,-0.37272199988365173
1711795441790501000,11.854501220703124,0.2107360064983368,-0.1386290043592453,-0.1637759953737259
1711795441800150300,11.864150390625,0.2648929953575134,-0.15908199548721313,-0.13100899755954742
1711795441809799700,11.873799560546875,0.19556300342082977,-0.12937699258327484,-0.1639699935913086
1711795441819448800,11.88344873046875,0.030604999512434006,-0.026374999433755875,-0.29279598593711853
1711795441829098000,11.893097900390625,-0.11756099760532379,0.12215600162744522,-0.37222400307655334
1711795441838747100,11.9027470703125,-0.21482199430465698,0.24007299542427063,-0.4355809986591339
1711795441848396000,11.91239599609375,-0.23906099796295166,0.28622499108314514,-0.45544400811195374
1711795441858045400,11.92204541015625,-0.1051660031080246,0.2997789978981018,-0.39444300532341003
1711795441867694600,11.931694580078124,0.22082099318504333,0.17094500362873077,-0.14951199293136597
1711795441877343500,11.941343505859376,0.504535973072052,0.035698000341653824,0.007689000107347965
1711795441886993000,11.950992919921875,0.6911349892616272,-0.052476998418569565,0.09882199764251709
1711795441896641800,11.960641845703124,0.7300540208816528,-0.07049600034952164,0.08924499899148941
1711795441906291200,11.970291259765625,0.7544670104980469,-0.07082100212574005,0.020284000784158707
1711795441915940400,11.9799404296875,0.5764309763908386,0.03817800059914589,-0.08581600338220596
1711795441925589500,11.989589599609374,0.27712199091911316,0.07218100130558014,-0.11794400215148926
1711795441935239000,11.999239013671875,0.18168899416923523,0.14758999645709991,-0.11346399784088135
1711795441944887800,12.0088876953125,0.061096999794244766,0.24678300321102142,0.0011060000397264957
1711795441954537000,12.018536865234376,-0.08813899755477905,0.21027900278568268,0.09076199680566788
1711795441964186000,12.02818603515625,-0.25049400329589844,0.15069200098514557,0.1185080036520958
1711795441973835500,12.03783544921875,-0.37328898906707764,0.14585599303245544,0.10919400304555893
1711795441983484400,12.047484375,-0.3062100112438202,0.04421199858188629,0.18313699960708618
1711795441993133600,12.057133544921875,-0.21198099851608276,0.004474000073969364,0.0893850028514862
1711795442002783000,12.066782958984374,-0.11668100208044052,0.06973999738693237,-0.06519600003957748
