time,seconds_elapsed,z,y,x
1711795430105320700,0.16932080078125,9.662904739379883,1.6488909721374512,-0.28251299262046814
1711795430114969900,0.178969970703125,9.663542747497559,1.6587270498275757,-0.18696600198745728
1711795430124619300,0.188619384765625,9.667353630065918,1.6391639709472656,-0.1606370061635971
1711795430134268200,0.19826806640625,9.654444694519043,1.7102839946746826,-0.19240200519561768
1711795430143917600,0.20791748046875,9.640106201171875,1.766353964805603,-0.34458300471305847
1711795430153566500,0.21756640625,9.625262260437012,1.8286499977111816,-0.42513400316238403
1711795430163216000,0.2272158203125,9.61988639831543,1.8410199880599976,-0.48868900537490845
1711795430172865000,0.236864990234375,9.61976146697998,1.842329978942871,-0.4862140119075775
1711795430182514200,0.24651416015625,9.620036125183105,1.8413029909133911,-0.48465898633003235
1711795430192163600,0.25616357421875,9.620696067810059,1.8379930257797241,-0.4841099977493286
1711795430201812700,0.265812744140625,9.621745109558105,1.832679033279419,-0.4834209978580475
1711795430211462000,0.2754619140625,9.623153686523438,1.8261820077896118,-0.4799480140209198
1711795430221111000,0.285111083984375,9.624537467956543,1.820436954498291,-0.47398799657821655
1711795430230760200,0.29476025390625,9.625523567199707,1.8169050216674805,-0.4674830138683319
1711795430240409600,0.30440966796875,9.625898361206055,1.816161036491394,-0.4626320004463196
1711795430250058800,0.314058837890625,9.625663757324219,1.8178950548171997,-0.46070098876953125
1711795430259708000,0.3237080078125,9.625083923339844,1.820783019065857,-0.4613870084285736
1711795430269357000,0.333357177734375,9.624893188476562,1.8208789825439453,-0.4650000035762787
1711795430279006500,0.34300634765625,9.62994384765625,1.7847670316696167,-0.4991700053215027
1711795430288655400,0.3526552734375,9.631617546081543,1.7748609781265259,-0.5021790266036987
1711795430298304500,0.362304443359375,9.633459091186523,1.7648340463638306,-0.5022150278091431
1711795430307953700,0.37195361328125,9.637100219726562,1.7446500062942505,-0.5028799772262573
1711795430317602800,0.381602783203125,9.638949394226074,1.7356899976730347,-0.498430997133255
1711795430327252200,0.391252197265625,9.641407012939453,1.7181689739227295,-0.5114200115203857
1711795430336901400,0.4009013671875,9.642104148864746,1.713521957397461,-0.51385897397995
1711795430346550500,0.410550537109375,9.641449928283691,1.7216249704360962,-0.49883198738098145
1711795430356200000,0.420199951171875,9.641676902770996,1.7196639776229858,-0.5012140274047852
1711795430365848800,0.429848876953125,9.641180038452148,1.7254290580749512,-0.4908429980278015
1711795430375498000,0.439498046875,9.642440795898438,1.7184569835662842,-0.49051499366760254
1711795430385147400,0.4491474609375,9.645484924316406,1.7063989639282227,-0.47242799401283264
1711795430394796500,0.458796630859375,9.646937370300293,1.6989669799804688,-0.46956101059913635
1711795430404445700,0.46844580078125,9.64887523651123,1.6885249614715576,-0.46738898754119873
1711795430414094800,0.4780947265625,9.649035453796387,1.6879520416259766,-0.4662010073661804
1711795430423744300,0.487744140625,9.649035453796387,1.6885600090026855,-0.4639680087566376
1711795430433393400,0.497393310546875,9.648538589477539,1.6911269426345825,-0.4649609923362732
1711795430443042600,0.50704248046875,9.647392272949219,1.7003810405731201,-0.45488300919532776
1711795430452691700,0.516691650390625,9.647815704345703,1.697605013847351,-0.45625999569892883
1711795430462340900,0.5263408203125,9.649831771850586,1.685371994972229,-0.4589720070362091
1711795430471990300,0.535990234375,9.651155471801758,1.6771670579910278,-0.46120700240135193
1711795430481639400,0.545639404296875,9.652560234069824,1.6686869859695435,-0.46255698800086975
1711795430491288600,0.55528857421875,9.653233528137207,1.6644480228424072,-0.4637570083141327
1711795430500937700,0.564937744140625,9.653547286987305,1.6644049882888794,-0.4573400020599365
1711795430510587000,0.5745869140625,9.653554916381836,1.6652220487594604,-0.4542190134525299
1711795430520235800,0.58423583984375,9.65192985534668,1.67665696144104,-0.446603000164032
1711795430529885200,0.59388525390625,9.651705741882324,1.678784966468811,-0.44344601035118103
1711795430539534600,0.60353466796875,9.650723457336426,1.6841679811477661,-0.4444049894809723
1711795430549183700,0.613183837890625,9.651261329650879,1.6803419589996338,-0.4472090005874634
1711795430558833200,0.622833251953125,9.652949333190918,1.6679359674453735,-0.45710501074790955
1711795430568482000,0.63248193359375,9.65374755859375,1.6612399816513062,-0.4645560085773468
1711795430578131200,0.642131103515625,9.655134201049805,1.6516770124435425,-0.4698219895362854
1711795430587780400,0.6517802734375,9.655856132507324,1.6472300291061401,-0.4706049859523773
1711795430597429800,0.6614296875,9.656806945800781,1.643805980682373,-0.4629940092563629
1711795430607078700,0.67107861328125,9.657912254333496,1.6394050121307373,-0.4554930031299591
1711795430616727800,0.680727783203125,9.658069610595703,1.6402180194854736,-0.4491879940032959
1711795430626377000,0.690376953125,9.658706665039062,1.6375000476837158,-0.4453809857368469
1711795430636026400,0.7000263671875,9.658561706542969,1.63823401927948,-0.445811003446579
1711795430645675500,0.709675537109375,9.658750534057617,1.6374739408493042,-0.4445120096206665
1711795430655324700,0.71932470703125,9.657332420349121,1.648298978805542,-0.435234010219574
1711795430664973800,0.728973876953125,9.658349990844727,1.6452269554138184,-0.4241349995136261
1711795430674623000,0.738623046875,9.657264709472656,1.655648946762085,-0.40799999237060547
1711795430684272000,0.748272216796875,9.659750938415527,1.6440869569778442,-0.3956829905509949
1711795430693921300,0.75792138671875,9.660908699035645,1.6394460201263428,-0.38659799098968506
1711795430703570400,0.7675703125,9.664351463317871,1.6199690103530884,-0.38266700506210327
1711795430713219600,0.777219482421875,9.667444229125977,1.6011970043182373,-0.38347798585891724
1711795430722869000,0.786868896484375,9.670472145080566,1.5817060470581055,-0.3880369961261749
1711795430732518100,0.79651806640625,9.67409610748291,1.5589150190353394,-0.3899340033531189
1711795430742167300,0.806167236328125,9.675690650939941,1.5483390092849731,-0.3924889862537384
1711795430751816400,0.81581640625,9.678202629089355,1.5334559679031372,-0.3889560103416443
1711795430761465600,0.825465576171875,9.67827033996582,1.5330400466918945,-0.388931006193161
1711795430771114800,0.83511474609375,9.677803039550781,1.5359419584274292,-0.3890889883041382
1711795430780764200,0.84476416015625,9.677787780761719,1.537121057510376,-0.3847770094871521
1711795430790413300,0.854413330078125,9.676989555358887,1.5438499450683594,-0.3778809905052185
1711795430800062700,0.864062744140625,9.678051948547363,1.5380409955978394,-0.3743480145931244
1711795430809711900,0.8737119140625,9.678475379943848,1.5349169969558716,-0.3762040138244629
1711795430819361000,0.883361083984375,9.680201530456543,1.5234160423278809,-0.37855100631713867
1711795430829010200,0.89301025390625,9.681395530700684,1.5149600505828857,-0.3819200098514557
1711795430838659300,0.902659423828125,9.682730674743652,1.504647970199585,-0.3887929916381836
1711795430848308500,0.91230859375,9.68209171295166,1.5041029453277588,-0.4063960015773773
1711795430857957600,0.92195751953125,9.682583808898926,1.4999059438705444,-0.4101789891719818
1711795430867607000,0.93160693359375,9.681122779846191,1.5058330297470093,-0.4227539896965027
1711795430877256200,0.941256103515625,9.680700302124023,1.5089060068130493,-0.4214630126953125
1711795430886905300,0.9509052734375,9.677868843078613,1.5233910083770752,-0.4341990053653717
1711795430896554200,0.96055419921875,9.676630973815918,1.5314680337905884,-0.4333550035953522
1711795430906203600,0.97020361328125,9.673733711242676,1.5466949939727783,-0.44383299350738525
1711795430915852800,0.979852783203125,9.672922134399414,1.5517170429229736,-0.4439930021762848
1711795430925502000,0.989501953125,9.670891761779785,1.5611369609832764,-0.4550679922103882
1711795430935151000,0.999151123046875,9.671904563903809,1.5547009706497192,-0.45559000968933105
1711795430944800500,1.008800537109375,9.671174049377441,1.5546269416809082,-0.4710789918899536
1711795430954449700,1.01844970703125,9.673786163330078,1.537466049194336,-0.4737580120563507
1711795430964098800,1.028098876953125,9.675444602966309,1.5228559970855713,-0.48688700795173645
1711795430973748200,1.037748291015625,9.677776336669922,1.5060110092163086,-0.49291399121284485
1711795430983397400,1.0473974609375,9.679200172424316,1.4942749738693237,-0.500635027885437
1711795430993046300,1.05704638671875,9.679821968078613,1.4891870021820068,-0.5037469863891602
1711795431002695400,1.0666953125,9.677762031555176,1.5014009475708008,-0.507049024105072
1711795431012344800,1.0763447265625,9.67736530303955,1.5075639486312866,-0.4962120056152344
1711795431021994000,1.085993896484375,9.671719551086426,1.546133041381836,-0.48753800988197327
1711795431031643100,1.09564306640625,9.671324729919434,1.5531409978866577,-0.47286298871040344
1711795431041292300,1.105292236328125,9.663880348205566,1.6002869606018066,-0.467848002910614
1711795431050941400,1.11494140625,9.663734436035156,1.6024240255355835,-0.46355000138282776
1711795431060590800,1.1245908203125,9.658289909362793,1.634574055671692,-0.4647510051727295
1711795431070239700,1.13423974609375,9.658890724182129,1.6303459405899048,-0.4670979976654053
1711795431079889200,1.14388916015625,9.655073165893555,1.6509989500045776,-0.47344300150871277
1711795431089538300,1.153538330078125,9.657007217407227,1.639991044998169,-0.4722529947757721
1711795431099187500,1.1631875,9.655041694641113,1.6500910520553589,-0.47721800208091736
1711795431108836600,1.172836669921875,9.657526969909668,1.6359349489212036,-0.4756760001182556
1711795431118485800,1.18248583984375,9.6569242477417,1.6384079456329346,-0.47940099239349365
1711795431128135000,1.192135009765625,9.658377647399902,1.6305099725723267,-0.47703099250793457
1711795431137784000,1.2017841796875,9.657458305358887,1.6372970342636108,-0.47236698865890503
1711795431147433500,1.21143359375,9.657455444335938,1.6396310329437256,-0.464275985956192
1711795431157082600,1.22108251953125,9.652870178222656,1.6665589809417725,-0.46373799443244934
1711795431166731800,1.230731689453125,9.651790618896484,1.6758719682693481,-0.45252498984336853
1711795431176380700,1.240380615234375,9.64476203918457,1.7158910036087036,-0.45240700244903564
1711795431186029800,1.25002978515625,9.643754005432129,1.7244559526443481,-0.44116801023483276
1711795431195679200,1.25967919921875,9.636127471923828,1.7670389413833618,-0.43934598565101624
1711795431205328400,1.269328369140625,9.635933876037598,1.7702579498291016,-0.4305399954319
1711795431214977500,1.2789775390625,9.63039779663086,1.8000919818878174,-0.43070200085639954
1711795431224626700,1.288626708984375,9.630760192871094,1.7996200323104858,-0.4245150089263916
1711795431234276000,1.298276123046875,9.626296997070312,1.8234590291976929,-0.4240129888057709
1711795431243925000,1.307925048828125,9.625541687011719,1.8282790184020996,-0.4203760027885437
1711795431253574100,1.31757421875,9.62027645111084,1.8562289476394653,-0.4184260070323944
1711795431263223600,1.3272236328125,9.618111610412598,1.8686469793319702,-0.412880003452301
1711795431272872700,1.336872802734375,9.609743118286133,1.9109669923782349,-0.4140259921550751
1711795431282521900,1.34652197265625,9.607516288757324,1.9241859912872314,-0.4043770134449005
1711795431292171000,1.3561708984375,9.599064826965332,1.9671380519866943,-0.39839598536491394
1711795431301820400,1.3658203125,9.598247528076172,1.973618984222412,-0.38578000664711
1711795431311469600,1.375469482421875,9.591702461242676,2.0068750381469727,-0.37694400548934937
1711795431321118700,1.38511865234375,9.591474533081055,2.0087978839874268,-0.37246501445770264
1711795431330768000,1.394767822265625,9.58667278289795,2.0311319828033447,-0.3749620020389557
1711795431340417000,1.4044169921875,9.585784912109375,2.0347800254821777,-0.3778829872608185
1711795431350066200,1.414066162109375,9.579273223876953,2.0625040531158447,-0.39239901304244995
1711795431359715600,1.423715576171875,9.577388763427734,2.070557117462158,-0.39599499106407166
1711795431369364700,1.43336474609375,9.56971263885498,2.103595018386841,-0.4072880148887634
1711795431379014000,1.443013916015625,9.567917823791504,2.111865997314453,-0.4066529870033264
1711795431388663000,1.4526630859375,9.561966896057129,2.13740611076355,-0.413114994764328
1711795431398312200,1.462312255859375,9.560714721679688,2.1430819034576416,-0.4127170145511627
1711795431407961300,1.47196142578125,9.557899475097656,2.1541690826416016,-0.4201500117778778
1711795431417610800,1.48161083984375,9.556406021118164,2.1604208946228027,-0.421970009803772
1711795431427260000,1.491260009765625,9.555441856384277,2.1635708808898926,-0.42764198780059814
1711795431436908800,1.50090869140625,9.553022384643555,2.174407958984375,-0.42673298716545105
1711795431446558200,1.51055810546875,9.550923347473145,2.1829330921173096,-0.43018200993537903
1711795431456207600,1.52020751953125,9.546403884887695,2.204416036605835,-0.42085400223731995
1711795431465856800,1.529856689453125,9.54112434387207,2.2300400733947754,-0.4052880108356476
1711795431475506000,1.539505859375,9.534414291381836,2.26100492477417,-0.39138999581336975
1711795431485154800,1.54915478515625,9.529189109802246,2.285537004470825,-0.3758549988269806
1711795431494804200,1.55880419921875,9.523262977600098,2.311367988586426,-0.3679890036582947
1711795431504453400,1.568453369140625,9.517831802368164,2.333743095397949,-0.3673030138015747
1711795431514102500,1.5781025390625,9.514513969421387,2.3464748859405518,-0.37213701009750366
1711795431523751400,1.58775146484375,9.516530990600586,2.3359220027923584,-0.3866240084171295
1711795431533400800,1.59740087890625,9.515484809875488,2.337116003036499,-0.40474098920822144
1711795431543050000,1.607050048828125,9.52523136138916,2.2934820652008057,-0.4246000051498413
1711795431552699100,1.61669921875,9.525456428527832,2.2893919944763184,-0.44130200147628784
1711795431562348300,1.626348388671875,9.539140701293945,2.2288620471954346,-0.45535901188850403
1711795431571997700,1.635997802734375,9.539441108703613,2.2262609004974365,-0.461762011051178
1711795431581646800,1.645646728515625,9.55310344696045,2.1669108867645264,-0.46162599325180054
1711795431591295700,1.655295654296875,9.550299644470215,2.1798360347747803,-0.4587650001049042
1711795431600945200,1.664945068359375,9.558952331542969,2.143928050994873,-0.447640985250473
1711795431610594300,1.67459423828125,9.552276611328125,2.1749119758605957,-0.44063499569892883
1711795431620243500,1.684243408203125,9.55753231048584,2.1555840969085693,-0.4212149977684021
1711795431629892600,1.693892578125,9.551109313964844,2.186863899230957,-0.40536901354789734
1711795431639542000,1.7035419921875,9.557618141174316,2.1628899574279785,-0.37977901101112366
1711795431649191200,1.713191162109375,9.552960395812988,2.1864678859710693,-0.3615269958972931
1711795431658840000,1.722840087890625,9.562594413757324,2.1500399112701416,-0.32326599955558777
1711795431668489700,1.73248974609375,9.558589935302734,2.170196056365967,-0.30657699704170227
1711795431678139000,1.742138916015625,9.570547103881836,2.1242411136627197,-0.250218003988266
1711795431687787800,1.751787841796875,9.5657958984375,2.1472020149230957,-0.23550300300121307
1711795431697437200,1.761437255859375,9.578205108642578,2.0973479747772217,-0.17178599536418915
1711795431707086300,1.77108642578125,9.573859214782715,2.1179211139678955,-0.16131100058555603
1711795431716735500,1.780735595703125,9.585296630859375,2.068789005279541,-0.11217900365591049
1711795431726384600,1.790384521484375,9.583022117614746,2.079401969909668,-0.11030499637126923
1711795431736033800,1.80003369140625,9.591764450073242,2.039479970932007,-0.09474699944257736
1711795431745683000,1.809682861328125,9.591418266296387,2.040311098098755,-0.11047299951314926
1711795431755332000,1.81933203125,9.60318660736084,1.9839669466018677,-0.11430300027132034
1711795431764981200,1.828981201171875,9.605042457580566,1.973446011543274,-0.1380009949207306
1711795431774630700,1.838630615234375,9.6189603805542,1.904168963432312,-0.1418289989233017
1711795431784279800,1.84827978515625,9.62155532836914,1.8892990350723267,-0.1631229966878891
1711795431793928700,1.8579287109375,9.634574890136719,1.8213380575180054,-0.16756899654865265
1711795431803578000,1.867578125,9.636578559875488,1.8090790510177612,-0.18428200483322144
1711795431813227300,1.877227294921875,9.646092414855957,1.7578550577163696,-0.18230600655078888
1711795431822876400,1.88687646484375,9.647659301757812,1.7473870515823364,-0.19922100007534027
1711795431832525600,1.896525634765625,9.653777122497559,1.712515950202942,-0.20560699701309204
1711795431842174700,1.9061748046875,9.655730247497559,1.6990410089492798,-0.2247219979763031
1711795431851824000,1.91582421875,9.66098690032959,1.6665890216827393,-0.24122700095176697
1711795431861473000,1.92547314453125,9.663715362548828,1.6477580070495605,-0.2605159878730774
1711795431871122200,1.9351220703125,9.668964385986328,1.6142940521240234,-0.2749139964580536
1711795431880771600,1.944771484375,9.672614097595215,1.5901869535446167,-0.2867560088634491
1711795431890420700,1.954420654296875,9.677910804748535,1.5575059652328491,-0.2874009907245636
1711795431900070000,1.96406982421875,9.682022094726562,1.5316489934921265,-0.2879059910774231
1711795431909719000,1.973718994140625,9.686836242675781,1.50239098072052,-0.28001800179481506
1711795431919368400,1.983368408203125,9.69022274017334,1.4812569618225098,-0.27539101243019104
1711795431929017600,1.993017578125,9.69166374206543,1.4729540348052979,-0.2691580057144165
1711795431938666500,2.00266650390625,9.693479537963867,1.4620800018310547,-0.2629689872264862
1711795431948316000,2.01231591796875,9.691123962402344,1.478111982345581,-0.2601749897003174
1711795431957965000,2.021965087890625,9.691645622253418,1.4762170314788818,-0.2513589859008789
1711795431967614200,2.0316142578125,9.687166213989258,1.506935954093933,-0.2415280044078827
1711795431977263400,2.041263427734375,9.687614440917969,1.506253957748413,-0.22739900648593903
1711795431986912500,2.05091259765625,9.683599472045898,1.535133957862854,-0.20413300395011902
1711795431996561700,2.060561767578125,9.685080528259277,1.5273269414901733,-0.191988006234169
1711795432006211000,2.070211181640625,9.683485984802246,1.5402599573135376,-0.16758400201797485
1711795432015860000,2.07985986328125,9.68625259399414,1.5236109495162964,-0.15971599519252777
1711795432025509400,2.08950927734375,9.685133934020996,1.5319639444351196,-0.147148996591568
1711795432035158500,2.099158447265625,9.687914848327637,1.5140349864959717,-0.14962999522686005
1711795432044807700,2.1088076171875,9.686622619628906,1.5224390029907227,-0.1480409950017929
1711795432054457000,2.11845703125,9.688728332519531,1.5082910060882568,-0.15489700436592102
1711795432064106000,2.12810595703125,9.68752670288086,1.515408992767334,-0.1604270040988922
1711795432073755100,2.137755126953125,9.688799858093262,1.506410002708435,-0.16815699636936188
1711795432083404500,2.147404541015625,9.686802864074707,1.5180690288543701,-0.178056001663208
1711795432093053700,2.1570537109375,9.687591552734375,1.5127559900283813,-0.1803950071334839
1711795432102702800,2.166702880859375,9.684415817260742,1.5331250429153442,-0.17888499796390533
1711795432112352000,2.17635205078125,9.685277938842773,1.5272639989852905,-0.18237300217151642
1711795432122001400,2.18600146484375,9.680489540100098,1.5563830137252808,-0.19025400280952454
1711795432131650300,2.195650390625,9.681778907775879,1.547474980354309,-0.19714100658893585
1711795432141299500,2.205299560546875,9.678357124328613,1.5672399997711182,-0.20865799486637115
1711795432150948900,2.214948974609375,9.679877281188965,1.556702971458435,-0.21690399944782257
1711795432160598000,2.224597900390625,9.67729377746582,1.570343017578125,-0.23322400450706482
1711795432170247200,2.2342470703125,9.678715705871582,1.561102032661438,-0.23623700439929962
1711795432179896300,2.243896240234375,9.67505931854248,1.582231044769287,-0.2452850043773651
1711795432189545700,2.253545654296875,9.676125526428223,1.5768029689788818,-0.23803700506687164
1711795432199195000,2.26319482421875,9.670662879943848,1.6098510026931763,-0.23885999619960785
1711795432208844000,2.272843994140625,9.671099662780762,1.6085749864578247,-0.22960500419139862
1711795432218493400,2.282493408203125,9.664959907531738,1.645447015762329,-0.22678500413894653
1711795432228142300,2.292142333984375,9.665023803710938,1.6459050178527832,-0.22071799635887146
1711795432237791500,2.30179150390625,9.659268379211426,1.6800930500030518,-0.21491800248622894
1711795432247440600,2.311440673828125,9.658784866333008,1.6836570501327515,-0.20871399343013763
1711795432257089800,2.32108984375,9.65283203125,1.7197329998016357,-0.18907099962234497
1711795432266739000,2.330739013671875,9.652342796325684,1.7237449884414673,-0.17707499861717224
1711795432276388400,2.340388427734375,9.644543647766113,1.7687209844589233,-0.15743300318717957
1711795432286037200,2.350037353515625,9.644376754760742,1.7708630561828613,-0.14298400282859802
1711795432295686700,2.359686767578125,9.6372709274292,1.8109370470046997,-0.11787600070238113
1711795432305335800,2.369335693359375,9.637275695800781,1.8116790056228638,-0.10548000037670135
1711795432314985000,2.37898486328125,9.630875587463379,1.8465360403060913,-0.08314699679613113
1711795432324634000,2.388634033203125,9.630157470703125,1.8506929874420166,-0.07364699989557266
1711795432334283500,2.398283447265625,9.625385284423828,1.8760859966278076,-0.05150900036096573
1711795432343932400,2.407932373046875,9.623566627502441,1.885707974433899,-0.03826000168919563
1711795432353581600,2.41758154296875,9.617972373962402,1.9143580198287964,-0.015018000267446041
1711795432363230700,2.427230712890625,9.614996910095215,1.9293019771575928,0.003986999858170748
1711795432372880000,2.4368798828125,9.607827186584473,1.9645060300827026,0.02761100046336651
1711795432382529300,2.446529296875,9.603452682495117,1.9854450225830078,0.045614998787641525
1711795432392178400,2.456178466796875,9.593545913696289,2.032351016998291,0.06172399967908859
1711795432401827600,2.46582763671875,9.587904930114746,2.058521032333374,0.07036200165748596
1711795432411476700,2.475476806640625,9.582932472229004,2.081563949584961,0.06977999955415726
1711795432421126000,2.4851259765625,9.5774507522583,2.1066150665283203,0.07064300030469894
1711795432430775000,2.494775146484375,9.574910163879395,2.118273973464966,0.06629999727010727
1711795432440424400,2.504424560546875,9.569010734558105,2.1448609828948975,0.06310199946165085
1711795432450073600,2.514073486328125,9.568084716796875,2.149379014968872,0.04798699915409088
1711795432459722800,2.52372265625,9.561001777648926,2.180799961090088,0.04166100174188614
1711795432469372200,2.5333720703125,9.562918663024902,2.17274808883667,0.011486000381410122
1711795432479021300,2.543021240234375,9.556402206420898,2.20124888420105,0.008244999684393406
1711795432488670200,2.552670166015625,9.563905715942383,2.1684041023254395,-0.01167600043118
1711795432498319600,2.562319580078125,9.56068229675293,2.182568073272705,-0.012192999944090843
1711795432507968800,2.57196875,9.575885772705078,2.1148650646209717,-0.012350000441074371
1711795432517618000,2.581617919921875,9.577054977416992,2.1095659732818604,-0.011903000064194202
1711795432527267000,2.59126708984375,9.59709358215332,2.0164620876312256,-0.008589999750256538
1711795432536916500,2.60091650390625,9.600125312805176,2.0019679069519043,-0.010355999693274498
1711795432546565400,2.6105654296875,9.619519233703613,1.9064539670944214,-0.02601799927651882
1711795432556214500,2.620214599609375,9.621786117553711,1.8948620557785034,-0.033410001546144485
1711795432565864000,2.629864013671875,9.639399528503418,1.8029600381851196,-0.04088199883699417
1711795432575513000,2.63951318359375,9.640546798706055,1.7967029809951782,-0.045864999294281006
1711795432585162200,2.649162353515625,9.654365539550781,1.7212300300598145,-0.03146599978208542
1711795432594811400,2.658811279296875,9.6546630859375,1.7196379899978638,-0.026690000668168068
1711795432604460800,2.668460693359375,9.665276527404785,1.6591579914093018,0.0029070000164210796
1711795432614110000,2.67810986328125,9.66512393951416,1.6599949598312378,0.013856999576091766
1711795432623758800,2.6877587890625,9.672905921936035,1.6136300563812256,0.03823800012469292
1711795432633408300,2.697408203125,9.672419548034668,1.6163400411605835,0.0460750013589859
1711795432643057400,2.707057373046875,9.678694725036621,1.578050971031189,0.05480799823999405
1711795432652706600,2.71670654296875,9.67798900604248,1.5825530290603638,0.049564000219106674
1711795432662355700,2.726355712890625,9.682976722717285,1.552117943763733,0.03564099967479706
1711795432672004900,2.7360048828125,9.682106971740723,1.5578219890594482,0.019701000303030014
1711795432681654300,2.745654296875,9.685129165649414,1.5390369892120361,-0.004377000033855438
1711795432691303400,2.755303466796875,9.684063911437988,1.5456509590148926,-0.01613200083374977
1711795432700952800,2.764952880859375,9.68433952331543,1.5431979894638062,-0.04989900067448616
1711795432710602000,2.77460205078125,9.68335247039795,1.5491440296173096,-0.05666700005531311
1711795432720251000,2.7842509765625,9.68320083618164,1.5488929748535156,-0.08330000191926956
1711795432729900300,2.793900390625,9.683059692382812,1.5496220588684082,-0.08601400256156921
1711795432739549400,2.803549560546875,9.682979583740234,1.5488590002059937,-0.10642299801111221
1711795432749198600,2.813198486328125,9.683985710144043,1.5427219867706299,-0.10405799746513367
1711795432758847700,2.82284765625,9.685136795043945,1.535491943359375,-0.10382600128650665
1711795432768497200,2.8324970703125,9.68734073638916,1.5223820209503174,-0.09035299718379974
1711795432778146000,2.84214599609375,9.68900203704834,1.512112021446228,-0.08460500091314316
1711795432787795200,2.851795166015625,9.691837310791016,1.4947420358657837,-0.06638000160455704
1711795432797444600,2.861444580078125,9.694023132324219,1.4806749820709229,-0.062481001019477844
1711795432807093800,2.87109375,9.697016716003418,1.4613189697265625,-0.05290500074625015
1711795432816743000,2.880742919921875,9.70036792755127,1.4388070106506348,-0.05549100041389465
1711795432826392000,2.89039208984375,9.703095436096191,1.4204399585723877,-0.05166900157928467
1711795432836041200,2.900041259765625,9.706439971923828,1.3977839946746826,-0.040376000106334686
1711795432845690400,2.9096904296875,9.708642959594727,1.3826390504837036,-0.030918000265955925
1711795432855339500,2.919339599609375,9.709991455078125,1.373365044593811,-0.018045000731945038
1711795432864988700,2.92898876953125,9.711389541625977,1.3635480403900146,-0.002032000105828047
1711795432874637800,2.938637939453125,9.710787773132324,1.3678419589996338,0.001339999958872795
1711795432884287000,2.948286865234375,9.711395263671875,1.3634400367736816,0.014800000004470348
1711795432893936000,2.95793603515625,9.708392143249512,1.3846839666366577,0.012198000214993954
1711795432903585300,2.967585205078125,9.708507537841797,1.383828043937683,0.015912000089883804
1711795432913234700,2.977234619140625,9.705351829528809,1.4057940244674683,0.01645899936556816
1711795432922883800,2.9868837890625,9.705671310424805,1.4035929441452026,0.016119999811053276
1711795432932533200,2.996533203125,9.702342987060547,1.426298975944519,0.02402300015091896
1711795432942182400,3.006182373046875,9.703017234802246,1.4216690063476562,0.026690000668168068
1711795432951831600,3.01583154296875,9.698917388916016,1.4492759704589844,0.031163999810814857
1711795432961480700,3.025480712890625,9.70010757446289,1.441182017326355,0.036031998693943024
1711795432971129600,3.035129638671875,9.69594955444336,1.4689610004425049,0.03324199840426445
1711795432980779000,3.044779052734375,9.69773006439209,1.4570389986038208,0.03822299838066101
1711795432990428200,3.05442822265625,9.694645881652832,1.4775129556655884,0.03448700159788132
1711795433000077300,3.064077392578125,9.696676254272461,1.46396803855896,0.04070400074124336
1711795433009726700,3.073726806640625,9.693839073181152,1.4825559854507446,0.043522000312805176
1711795433019375900,3.0833759765625,9.695101737976074,1.4740389585494995,0.05093200132250786
1711795433029025000,3.09302490234375,9.692336082458496,1.4919519424438477,0.05560100078582764
1711795433038674200,3.102674072265625,9.692458152770996,1.4908039569854736,0.0644029974937439
1711795433048323300,3.1123232421875,9.688030242919922,1.5190750360488892,0.06978300213813782
1711795433057972500,3.121972412109375,9.687867164611816,1.519637942314148,0.07945600152015686
1711795433067622000,3.131621826171875,9.682144165039062,1.5556830167770386,0.07951799780130386
1711795433077270800,3.141270751953125,9.682233810424805,1.5549739599227905,0.08234599977731705
1711795433086920200,3.150920166015625,9.676507949829102,1.5904430150985718,0.07804200053215027
1711795433096569300,3.1605693359375,9.67660903930664,1.5898569822311401,0.07727699726819992
1711795433106218500,3.170218505859375,9.670164108276367,1.6284699440002441,0.08004499971866608
1711795433115868000,3.179867919921875,9.669573783874512,1.6318509578704834,0.08235900104045868
1711795433125517000,3.18951708984375,9.662643432617188,1.6719579696655273,0.09086299687623978
1711795433135166000,3.199166015625,9.661498069763184,1.6779539585113525,0.10148599743843079
1711795433144815400,3.2088154296875,9.653826713562012,1.7211240530014038,0.10842499881982803
1711795433154464500,3.218464599609375,9.652642250061035,1.7271720170974731,0.11724600195884705
1711795433164113700,3.22811376953125,9.644944190979004,1.769454002380371,0.12028300017118454
1711795433173762800,3.2377626953125,9.644086837768555,1.7739700078964233,0.12250900268554688
1711795433183412000,3.247411865234375,9.637911796569824,1.8071589469909668,0.12330400198698044
1711795433193061400,3.257061279296875,9.637078285217285,1.8118679523468018,0.1193149983882904
1711795433202710300,3.266710205078125,9.631265640258789,1.8429290056228638,0.11280100047588348
1711795433212359700,3.276359619140625,9.62988567352295,1.850195050239563,0.11167900264263153
1711795433222008800,3.2860087890625,9.622806549072266,1.8871099948883057,0.10387399792671204
1711795433231658000,3.295657958984375,9.6210298538208,1.895967960357666,0.1071619987487793
1711795433241307100,3.30530712890625,9.613407135009766,1.9346389770507812,0.09978599846363068
1711795433250956500,3.31495654296875,9.611919403076172,1.9419310092926025,0.10147000104188919
1711795433260605700,3.324605712890625,9.605164527893066,1.9754949808120728,0.09272100031375885
1711795433270254800,3.3342548828125,9.604065895080566,1.9809319972991943,0.09063299745321274
1711795433279904000,3.343904052734375,9.598142623901367,2.0100278854370117,0.07630900293588638
1711795433289553400,3.353553466796875,9.596474647521973,2.017970085144043,0.07657399773597717
1711795433299202600,3.36320263671875,9.587553024291992,2.060373067855835,0.06395599991083145
1711795433308851700,3.372851806640625,9.583972930908203,2.0768139362335205,0.0684870034456253
1711795433318500900,3.3825009765625,9.574384689331055,2.120621919631958,0.0672760009765625
1711795433328150000,3.39214990234375,9.570045471191406,2.139836072921753,0.07565099745988846
1711795433337799400,3.40179931640625,9.563953399658203,2.1673760414123535,0.06059199944138527
1711795433347448600,3.411448486328125,9.56115436553955,2.1794989109039307,0.0670429989695549
1711795433357097700,3.42109765625,9.558427810668945,2.1919760704040527,0.04545599967241287
1711795433366747000,3.430746826171875,9.557403564453125,2.196491003036499,0.04294300079345703
1711795433376396000,3.44039599609375,9.563176155090332,2.1715970039367676,0.014992999844253063
1711795433386045200,3.450045166015625,9.56290054321289,2.1728439331054688,0.00710699986666441
1711795433395694300,3.4596943359375,9.570817947387695,2.1374189853668213,-0.03572800010442734
1711795433405343500,3.469343505859375,9.568758010864258,2.146449089050293,-0.04499899968504906
1711795433414993000,3.478992919921875,9.578149795532227,2.1025118827819824,-0.09415899962186813
1711795433424642000,3.48864208984375,9.57421588897705,2.120378017425537,-0.09355700016021729
1711795433434291000,3.498291015625,9.586846351623535,2.0624160766601562,-0.09599299728870392
1711795433443940400,3.5079404296875,9.581413269042969,2.088196039199829,-0.07966399937868118
1711795433453589500,3.517589599609375,9.593289375305176,2.0344979763031006,0.0032160000409930944
1711795433463238700,3.52723876953125,9.58799934387207,2.0590360164642334,0.03182600066065788
1711795433472887800,3.5368876953125,9.594035148620605,2.027951955795288,0.110896997153759
1711795433482537000,3.546536865234375,9.59070873260498,2.0416901111602783,0.1420689970254898
1711795433492186400,3.556186279296875,9.59333610534668,2.0228159427642822,0.21566900610923767
1711795433501835500,3.56583544921875,9.591706275939941,2.029737949371338,0.22300200164318085
1711795433511484400,3.575484375,9.594276428222656,2.0136361122131348,0.2559579908847809
1711795433521133800,3.5851337890625,9.593781471252441,2.0192348957061768,0.22897599637508392
1711795433530783000,3.594782958984375,9.602872848510742,1.9753429889678955,0.23072600364685059
1711795433540432400,3.604432373046875,9.602952003479004,1.97804594039917,0.20254600048065186
1711795433550081500,3.61408154296875,9.614814758300781,1.9190289974212646,0.20747500658035278
1711795433559730700,3.623730712890625,9.61556339263916,1.91566002368927,0.2038850039243698
1711795433569379800,3.6333798828125,9.628646850585938,1.8453799486160278,0.23263399302959442
1711795433579029000,3.643029052734375,9.630585670471191,1.8348569869995117,0.23558099567890167
1711795433588678100,3.65267822265625,9.640580177307129,1.7772200107574463,0.2666279971599579
1711795433598327300,3.662327392578125,9.64326000213623,1.7637189626693726,0.2592819929122925
1711795433607976400,3.6719765625,9.651609420776367,1.7137210369110107,0.2827869951725006
1711795433617625900,3.6816259765625,9.654067039489746,1.7014180421829224,0.2730500102043152
1711795433627275000,3.69127490234375,9.6624174118042,1.651718020439148,0.2826400101184845
1711795433636924200,3.700924072265625,9.66392993927002,1.642374038696289,0.2854039967060089
1711795433646573300,3.7105732421875,9.669708251953125,1.6065319776535034,0.2935830056667328
1711795433656222700,3.72022265625,9.670058250427246,1.601863980293274,0.30724599957466125
1711795433665872000,3.729871826171875,9.672751426696777,1.58187997341156,0.3254750072956085
1711795433675521000,3.73952099609375,9.672283172607422,1.5819419622421265,0.3387889862060547
1711795433685170000,3.749169921875,9.671589851379395,1.5833079814910889,0.35197100043296814
1711795433694819300,3.7588193359375,9.670795440673828,1.5873490571975708,0.35555100440979004
1711795433704468500,3.768468505859375,9.668456077575684,1.600741982460022,0.35911399126052856
1711795433714117600,3.77811767578125,9.668096542358398,1.6026649475097656,0.36021000146865845
1711795433723766800,3.787766845703125,9.666722297668457,1.6106820106506348,0.36134299635887146
1711795433733416200,3.797416259765625,9.667732238769531,1.6033469438552856,0.3668909966945648
1711795433743065300,3.8070654296875,9.667579650878906,1.6010459661483765,0.3806909918785095
1711795433752714500,3.816714599609375,9.668928146362305,1.591873049736023,0.38489899039268494
1711795433762363600,3.82636376953125,9.66687297821045,1.6021790504455566,0.3936760127544403
1711795433772012800,3.8360126953125,9.667346000671387,1.5995630025863647,0.39269599318504333
1711795433781662000,3.845661865234375,9.66215991973877,1.630748987197876,0.39204099774360657
1711795433791311400,3.855311279296875,9.66214656829834,1.6327040195465088,0.3841559886932373
1711795433800960500,3.86496044921875,9.657326698303223,1.6613260507583618,0.3826340138912201
1711795433810609700,3.874609619140625,9.658126831054688,1.659471035003662,0.37030699849128723
1711795433820259000,3.884259033203125,9.65668773651123,1.6701879501342773,0.35950300097465515
1711795433829908200,3.893908203125,9.658407211303711,1.6620090007781982,0.3511039912700653
1711795433839557400,3.903557373046875,9.657872200012207,1.6665199995040894,0.3443770110607147
1711795433849206500,3.91320654296875,9.65967082977295,1.6574879884719849,0.3374499976634979
1711795433858855700,3.922855712890625,9.659383773803711,1.6595959663391113,0.335316002368927
1711795433868504800,3.9325048828125,9.660235404968262,1.6560629606246948,0.32818201184272766
1711795433878154000,3.942154052734375,9.65815544128418,1.6683789491653442,0.3270080089569092
1711795433887803400,3.951803466796875,9.657580375671387,1.6733449697494507,0.31851300597190857
1711795433897452500,3.96145263671875,9.65393352508545,1.695788025856018,0.3102419972419739
1711795433907101700,3.971101806640625,9.652192115783691,1.7070000171661377,0.3028790056705475
1711795433916750800,3.980750732421875,9.646422386169434,1.7411739826202393,0.2919600009918213
1711795433926400300,3.990400146484375,9.644051551818848,1.7547370195388794,0.28905999660491943
1711795433936049200,4.000049072265625,9.637402534484863,1.7917649745941162,0.2836180031299591
1711795433945698300,4.0096982421875,9.635326385498047,1.8033699989318848,0.28057101368904114
1711795433955347700,4.01934765625,9.629693031311035,1.8330490589141846,0.28165099024772644
1711795433964996900,4.028996826171875,9.62816047668457,1.8424659967422485,0.27244699001312256
1711795433974646000,4.03864599609375,9.622790336608887,1.869850993156433,0.27557700872421265
1711795433984295400,4.04829541015625,9.620890617370605,1.8808380365371704,0.26703500747680664
1711795433993944600,4.057944580078125,9.612480163574219,1.9224799871444702,0.27326899766921997
1711795434003593700,4.06759375,9.610163688659668,1.9350149631500244,0.2661780118942261
1711795434013243000,4.077242919921875,9.60224723815918,1.9732669591903687,0.270999014377594
1711795434022892300,4.086892333984375,9.60058879852295,1.9822969436645508,0.26379600167274475
1711795434032541400,4.09654150390625,9.594738006591797,2.0106918811798096,0.26169300079345703
1711795434042190300,4.1061904296875,9.594328880310059,2.013442039489746,0.2555310130119324
1711795434051839700,4.11583984375,9.590800285339355,2.029644012451172,0.2597779929637909
1711795434061489000,4.125489013671875,9.591599464416504,2.0264039039611816,0.2555350065231323
1711795434071138000,4.135137939453125,9.590136528015137,2.0324249267578125,0.26252201199531555
1711795434080787500,4.144787353515625,9.591492652893066,2.026031017303467,0.26241400837898254
1711795434090436600,4.1544365234375,9.587122917175293,2.043804883956909,0.283407986164093
1711795434100085800,4.164085693359375,9.58818531036377,2.0392720699310303,0.28011399507522583
1711795434109735000,4.17373486328125,9.586509704589844,2.0460760593414307,0.2877489924430847
1711795434119384300,4.18338427734375,9.588323593139648,2.038450002670288,0.281360000371933
1711795434129033500,4.193033447265625,9.591815948486328,2.0214309692382812,0.28507199883461
1711795434138682400,4.202682373046875,9.596473693847656,1.9988030195236206,0.28786700963974
1711795434148331500,4.21233154296875,9.603385925292969,1.9627280235290527,0.3050540089607239
1711795434157981000,4.22198095703125,9.610042572021484,1.9293190240859985,0.30854201316833496
1711795434167630000,4.231630126953125,9.62024974822998,1.8765859603881836,0.31560200452804565
1711795434177279200,4.241279296875,9.625770568847656,1.8481299877166748,0.31518399715423584
1711795434186928400,4.250928466796875,9.634137153625488,1.8052829504013062,0.30779001116752625
1711795434196577800,4.260577880859375,9.636341094970703,1.794692039489746,0.30065399408340454
1711795434206227000,4.27022705078125,9.640670776367188,1.7751189470291138,0.27714401483535767
1711795434215876000,4.2798759765625,9.640088081359863,1.7797529697418213,0.26752200722694397
1711795434225525200,4.289525146484375,9.641951560974121,1.7734349966049194,0.241007000207901
1711795434235174400,4.29917431640625,9.640563011169434,1.7821400165557861,0.23219400644302368
1711795434244823600,4.308823486328125,9.640466690063477,1.7868670225143433,0.19723400473594666
1711795434254473000,4.318472900390625,9.638985633850098,1.7958990335464478,0.1873210072517395
1711795434264122000,4.3281220703125,9.640019416809082,1.7932759523391724,0.15675300359725952
1711795434273771300,4.337771240234375,9.638025283813477,1.8042019605636597,0.15400700271129608
1711795434283420400,4.34742041015625,9.637422561645508,1.8096829652786255,0.12453799694776535
1711795434293069600,4.357069580078125,9.63334846496582,1.8311200141906738,0.12652799487113953
1711795434302719000,4.366718994140625,9.628494262695312,1.8580700159072876,0.10029800236225128
1711795434312368000,4.3763681640625,9.622602462768555,1.888098955154419,0.10489500313997269
1711795434322017000,4.38601708984375,9.615345001220703,1.9248100519180298,0.10313799977302551
1711795434331666400,4.39566650390625,9.610152244567871,1.9503179788589478,0.10781899839639664
1711795434341315800,4.40531591796875,9.607210159301758,1.9645600318908691,0.11141300201416016
1711795434350964700,4.41496484375,9.605927467346191,1.9704749584197998,0.11745999753475189
1711795434360614000,4.42461376953125,9.609971046447754,1.950819969177246,0.11466100066900253
1711795434370263300,4.43426318359375,9.612556457519531,1.9379520416259766,0.1161239966750145
1711795434379912400,4.443912353515625,9.620867729187012,1.897547960281372,0.0927710011601448
1711795434389561900,4.453561767578125,9.624887466430664,1.8775219917297363,0.08288899809122086
1711795434399211000,4.4632109375,9.636055946350098,1.8206089735031128,0.04689300060272217
1711795434408860200,4.472860107421875,9.639204978942871,1.8042089939117432,0.030748000368475914
1711795434418509000,4.482509033203125,9.649321556091309,1.7495570182800293,-0.006757999770343304
1711795434428158500,4.492158447265625,9.650379180908203,1.7436879873275757,-0.011076999828219414
1711795434437807600,4.5018076171875,9.656853675842285,1.7073559761047363,-0.022221999242901802
1711795434447457000,4.51145703125,9.6555757522583,1.7146799564361572,-0.010734000243246555
1711795434457106200,4.521106201171875,9.65768814086914,1.7027089595794678,-0.014941000379621983
1711795434466755300,4.53075537109375,9.65552806854248,1.7149829864501953,-0.0016820000018924475
1711795434476404500,4.540404541015625,9.656265258789062,1.7106950283050537,-0.021213000640273094
1711795434486053600,4.5500537109375,9.65505313873291,1.7176100015640259,-0.01236599963158369
1711795434495703000,4.559703125,9.654067039489746,1.72291898727417,-0.03082899935543537
1711795434505352200,4.569352294921875,9.65392780303955,1.7237670421600342,-0.026391999796032906
1711795434515001000,4.5790009765625,9.651694297790527,1.7361600399017334,-0.030408000573515892
1711795434524650200,4.588650146484375,9.652538299560547,1.731592059135437,-0.02192699909210205
1711795434534299600,4.598299560546875,9.650910377502441,1.7406320571899414,-0.022463999688625336
1711795434543948800,4.60794873046875,9.653164863586426,1.72822105884552,-0.0076870000921189785
1711795434553598000,4.617597900390625,9.653822898864746,1.7245529890060425,-0.0006820000126026571
1711795434563247400,4.627247314453125,9.657855033874512,1.701748013496399,0.016780000180006027
1711795434572896500,4.636896484375,9.662004470825195,1.6777900457382202,0.032728999853134155
1711795434582545700,4.646545654296875,9.66728401184082,1.6467839479446411,0.046091001480817795
1711795434592194800,4.65619482421875,9.673032760620117,1.6119719743728638,0.06606300175189972
1711795434601844200,4.66584423828125,9.67792797088623,1.5821549892425537,0.06990999728441238
1711795434611493400,4.675493408203125,9.680377960205078,1.5672860145568848,0.06542500108480453
1711795434621142500,4.685142578125,9.683677673339844,1.5468260049819946,0.06411600112915039
1711795434630791700,4.694791748046875,9.683647155761719,1.547652006149292,0.046167001128196716
1711795434640440800,4.70444091796875,9.685120582580566,1.5383659601211548,0.047467999160289764
1711795434650090000,4.714090087890625,9.682486534118652,1.5550819635391235,0.03943900018930435
1711795434659739400,4.723739501953125,9.68205738067627,1.5574339628219604,0.0504009984433651
1711795434669388500,4.733388427734375,9.675545692443848,1.597316026687622,0.052953001111745834
1711795434679037700,4.74303759765625,9.672948837280273,1.6123219728469849,0.0697920024394989
1711795434688686800,4.752686767578125,9.665345191955566,1.656633973121643,0.08393599838018417
1711795434698336000,4.7623359375,9.661636352539062,1.6770750284194946,0.10283900052309036
1711795434707985400,4.7719853515625,9.653826713562012,1.7207050323486328,0.11490000039339066
1711795434717634600,4.781634521484375,9.650991439819336,1.735260009765625,0.132765993475914
1711795434727283700,4.79128369140625,9.646116256713867,1.7615920305252075,0.14011900126934052
1711795434736932900,4.800932861328125,9.645394325256348,1.764348030090332,0.15429699420928955
1711795434746582000,4.81058203125,9.642311096191406,1.781227946281433,0.1531360000371933
1711795434756231200,4.820231201171875,9.642749786376953,1.7779990434646606,0.16271400451660156
1711795434765880300,4.82988037109375,9.640615463256836,1.7889310121536255,0.16923600435256958
1711795434775529700,4.83952978515625,9.640846252441406,1.7872140407562256,0.17415499687194824
1711795434785179000,4.849178955078125,9.640512466430664,1.788351058959961,0.18085600435733795
1711795434794828300,4.858828369140625,9.640495300292969,1.7875930070877075,0.18907900154590607
1711795434804477400,4.8684775390625,9.640908241271973,1.7846440076828003,0.1957470029592514
1711795434814126600,4.878126708984375,9.64030647277832,1.7862739562988281,0.2100140005350113
1711795434823775700,4.887775634765625,9.638569831848145,1.794335961341858,0.22066999971866608
1711795434833425200,4.897425048828125,9.636164665222168,1.8057520389556885,0.23232099413871765
1711795434843074000,4.907073974609375,9.629484176635742,1.8399759531021118,0.24065899848937988
1711795434852723500,4.916723388671875,9.62491512298584,1.8633849620819092,0.24328500032424927
1711795434862372600,4.92637255859375,9.615167617797852,1.9124499559402466,0.24795900285243988
1711795434872021800,4.936021728515625,9.609734535217285,1.939020037651062,0.2521829903125763
1711795434881671000,4.9456708984375,9.598301887512207,1.994523048400879,0.2547059953212738
1711795434891320300,4.9553203125,9.593812942504883,2.0153629779815674,0.2597059905529022
1711795434900969500,4.964969482421875,9.584519386291504,2.059954881668091,0.25287699699401855
1711795434910618600,4.97461865234375,9.581900596618652,2.072329044342041,0.2510550022125244
1711795434920267800,4.984267822265625,9.576415061950684,2.0987610816955566,0.24053899943828583
1711795434929917200,4.993917236328125,9.574893951416016,2.106671094894409,0.23180800676345825
1711795434939566300,5.00356640625,9.571852684020996,2.1226110458374023,0.21105200052261353
1711795434949215500,5.013215576171875,9.570465087890625,2.130160093307495,0.19742700457572937
1711795434958865000,5.022864990234375,9.568272590637207,2.141829013824463,0.17642700672149658
1711795434968513800,5.032513671875,9.565973281860352,2.1526811122894287,0.16887600719928741
1711795434978163000,5.042162841796875,9.560935020446777,2.1763548851013184,0.14962300658226013
1711795434987812600,5.0518125,9.556897163391113,2.1942191123962402,0.14661499857902527
1711795434997461500,5.06146142578125,9.548075675964355,2.2332398891448975,0.13142900168895721
1711795435007110700,5.071110595703125,9.542661666870117,2.2563109397888184,0.13065899908542633
1711795435016760000,5.080760009765625,9.528226852416992,2.316688060760498,0.1274379938840866
1711795435026409000,5.090408935546875,9.5226469039917,2.3394670486450195,0.12832100689411163
1711795435036058400,5.100058349609375,9.514890670776367,2.3706369400024414,0.13155800104141235
1711795435045707300,5.109707275390625,9.513457298278809,2.3760321140289307,0.13781499862670898
1711795435055356700,5.119356689453125,9.506220817565918,2.405034065246582,0.1340389996767044
1711795435065005800,5.129005859375,9.50853443145752,2.3960440158843994,0.13088400661945343
1711795435074655000,5.138655029296875,9.507983207702637,2.3985490798950195,0.1249149963259697
1711795435084304100,5.14830419921875,9.511903762817383,2.383760929107666,0.10840699821710587
1711795435093953500,5.15795361328125,9.520162582397461,2.3512189388275146,0.09307999908924103
1711795435103602700,5.167602783203125,9.523085594177246,2.33994197845459,0.0769060030579567
1711795435113251800,5.177251953125,9.53315544128418,2.2986819744110107,0.07340099662542343
1711795435122901200,5.1869013671875,9.534438133239746,2.2934670448303223,0.06979300081729889
1711795435132550400,5.19655029296875,9.542811393737793,2.258328914642334,0.07136800140142441
1711795435142199600,5.206199462890625,9.542523384094238,2.259489059448242,0.07309500128030777
1711795435151848700,5.2158486328125,9.54698657989502,2.23982310295105,0.0929270014166832
1711795435161498000,5.225498046875,9.544621467590332,2.2500929832458496,0.08760400116443634
1711795435171147000,5.23514697265625,9.545329093933105,2.246051073074341,0.11106699705123901
1711795435180796200,5.244796142578125,9.542040824890137,2.2604761123657227,0.10045599937438965
1711795435190445300,5.2544453125,9.545123100280762,2.2462940216064453,0.12313999980688095
1711795435200095000,5.264094970703125,9.543290138244629,2.254232883453369,0.12010099738836288
1711795435209744100,5.273744140625,9.549202919006348,2.2273929119110107,0.14774000644683838
1711795435219393300,5.283393310546875,9.5484037399292,2.230915069580078,0.1462620049715042
1711795435229042400,5.29304248046875,9.555047035217285,2.2009379863739014,0.16529899835586548
1711795435238691600,5.302691650390625,9.552709579467773,2.212023973464966,0.15193599462509155
1711795435248340700,5.3123408203125,9.558225631713867,2.1889450550079346,0.13863800466060638
1711795435257990000,5.321989990234375,9.553848266601562,2.209120988845825,0.11894500255584717
1711795435267639300,5.331639404296875,9.557039260864258,2.1964359283447266,0.09512999653816223
1711795435277288400,5.341288330078125,9.55308723449707,2.214050054550171,0.08302599936723709
1711795435286937600,5.3509375,9.559836387634277,2.184875965118408,0.07898300141096115
1711795435296586800,5.360586669921875,9.559547424316406,2.186276912689209,0.07507500052452087
1711795435306236000,5.37023583984375,9.572083473205566,2.1300408840179443,0.09228499978780746
1711795435315885000,5.379885009765625,9.574861526489258,2.117677927017212,0.08851800113916397
1711795435325534200,5.3895341796875,9.587895393371582,2.056796073913574,0.11065399646759033
1711795435335183600,5.39918359375,9.590656280517578,2.0440869331359863,0.10680799931287766
1711795435344832800,5.408832763671875,9.601059913635254,1.9931689500808716,0.1315380036830902
1711795435354482000,5.41848193359375,9.6024751663208,1.9862680435180664,0.13263599574565887
1711795435364131300,5.42813134765625,9.612826347351074,1.932850956916809,0.16740399599075317
1711795435373780500,5.437780517578125,9.614572525024414,1.922745943069458,0.18288099765777588
1711795435383429600,5.4474296875,9.623712539672852,1.8718479871749878,0.2252500057220459
1711795435393078800,5.457078857421875,9.627470970153809,1.8494549989700317,0.248416006565094
1711795435402728000,5.46672802734375,9.636161804199219,1.7985169887542725,0.28303900361061096
1711795435412377300,5.47637744140625,9.641636848449707,1.766286015510559,0.29909801483154297
1711795435422026500,5.486026611328125,9.649415016174316,1.7211790084838867,0.3109759986400604
1711795435431675600,5.495675537109375,9.65478229522705,1.6906750202178955,0.3117620050907135
1711795435441325000,5.505324951171875,9.661563873291016,1.6519579887390137,0.3091920018196106
1711795435450974200,5.51497412109375,9.664907455444336,1.633857011795044,0.30075299739837646
1711795435460623400,5.524623291015625,9.668664932250977,1.611264944076538,0.3018690049648285
1711795435470272500,5.5342724609375,9.668546676635742,1.6125580072402954,0.29873400926589966
1711795435479921700,5.543921630859375,9.666522979736328,1.6233999729156494,0.3054429888725281
1711795435489570800,5.55357080078125,9.663323402404785,1.639809012413025,0.3187420070171356
1711795435499220200,5.56322021484375,9.654196739196777,1.690837025642395,0.32857298851013184
1711795435508869400,5.572869384765625,9.649702072143555,1.7131110429763794,0.34478700160980225
1711795435518518500,5.5825185546875,9.636311531066895,1.784751057624817,0.35569798946380615
1711795435528167700,5.592167724609375,9.633090019226074,1.8008999824523926,0.36156898736953735
1711795435537817000,5.601817138671875,9.622344017028809,1.855188012123108,0.3730440139770508
1711795435547466200,5.61146630859375,9.621299743652344,1.8609579801559448,0.37122300267219543
1711795435557115400,5.621115478515625,9.615360260009766,1.8891949653625488,0.3823220133781433
1711795435566764500,5.6307646484375,9.615522384643555,1.8885979652404785,0.3811909854412079
1711795435576413700,5.64041357421875,9.610779762268066,1.9106839895248413,0.3906410038471222
1711795435586062800,5.650062744140625,9.61071491241455,1.9107389450073242,0.39195001125335693
1711795435595712300,5.659712158203125,9.607037544250488,1.9269369840621948,0.4026679992675781
1711795435605361400,5.669361328125,9.606353759765625,1.93014395236969,0.4036189913749695
1711795435615010600,5.679010498046875,9.602762222290039,1.9472090005874634,0.40709400177001953
1711795435624659700,5.68865966796875,9.602317810058594,1.949666976928711,0.40581199526786804
1711795435634309000,5.69830908203125,9.599015235900879,1.9656460285186768,0.40685299038887024
1711795435643958300,5.707958251953125,9.599699020385742,1.9642659425735474,0.3972800076007843
1711795435653607400,5.717607421875,9.596929550170898,1.979619026184082,0.3878610134124756
1711795435663256800,5.7272568359375,9.598308563232422,1.9762799739837646,0.3703620135784149
1711795435672905700,5.73690576171875,9.595515251159668,1.9928339719772339,0.3536669909954071
1711795435682555000,5.746554931640625,9.596360206604004,1.9919610023498535,0.33517399430274963
1711795435692204300,5.756204345703125,9.590482711791992,2.023890972137451,0.3113110065460205
1711795435701853400,5.765853515625,9.5899019241333,2.0290699005126953,0.29502999782562256
1711795435711502600,5.775502685546875,9.580864906311035,2.074131965637207,0.2745789885520935
1711795435721151700,5.78515185546875,9.579504013061523,2.081934928894043,0.26274898648262024
1711795435730801200,5.79480126953125,9.569458961486816,2.128829002380371,0.2528420090675354
1711795435740450300,5.8044501953125,9.568172454833984,2.1353280544281006,0.24666300415992737
1711795435750099500,5.814099365234375,9.557348251342773,2.184451103210449,0.2358810007572174
1711795435759748900,5.823748779296875,9.556608200073242,2.1881349086761475,0.2317260056734085
1711795435769398000,5.83339794921875,9.547465324401855,2.2284820079803467,0.2239850014448166
1711795435779047200,5.843047119140625,9.547060012817383,2.2304580211639404,0.22153300046920776
1711795435788696300,5.8526962890625,9.540057182312012,2.2601261138916016,0.22253799438476562
1711795435798345500,5.862345458984375,9.539632797241211,2.2615840435028076,0.22592200338840485
1711795435807995000,5.871994873046875,9.53209114074707,2.2916181087493896,0.24107399582862854
1711795435817644000,5.88164404296875,9.531254768371582,2.294111967086792,0.25023698806762695
1711795435827293200,5.891293212890625,9.520755767822266,2.3350820541381836,0.2701509892940521
1711795435836942300,5.9009423828125,9.518841743469238,2.3419270515441895,0.278207004070282
1711795435846591500,5.910591552734375,9.505247116088867,2.3944990634918213,0.29503199458122253
1711795435856241000,5.920240966796875,9.501623153686523,2.4086010456085205,0.29694798588752747
1711795435865890000,5.92989013671875,9.49158763885498,2.4467010498046875,0.30629000067710876
1711795435875539200,5.939539306640625,9.48840045928955,2.4583520889282227,0.3116630017757416
1711795435885188400,5.949188232421875,9.479432106018066,2.49188494682312,0.31819799542427063
1711795435894837500,5.95883740234375,9.478440284729004,2.495565891265869,0.318913996219635
1711795435904487000,5.96848681640625,9.475808143615723,2.505819082260132,0.31674399971961975
1711795435914135800,5.9781357421875,9.477538108825684,2.500641107559204,0.3056949973106384
1711795435923785200,5.98778515625,9.481413841247559,2.488642930984497,0.28255000710487366
1711795435933434600,5.9974345703125,9.483138084411621,2.483952045440674,0.26546400785446167
1711795435943083500,6.00708349609375,9.490086555480957,2.459764003753662,0.24124999344348907
1711795435952732700,6.016732666015625,9.489845275878906,2.4621829986572266,0.22556699812412262
1711795435962382000,6.026382080078125,9.498226165771484,2.4321229457855225,0.19711600244045258
1711795435972031200,6.03603125,9.495659828186035,2.44252610206604,0.19212600588798523
1711795435981680400,6.045680419921875,9.499641418457031,2.427933931350708,0.17980100214481354
1711795435991329800,6.055329833984375,9.495195388793945,2.4453821182250977,0.17821399867534637
1711795436000979000,6.06497900390625,9.49820613861084,2.4334640502929688,0.18087099492549896
1711795436010628000,6.074628173828125,9.494297981262207,2.448585033416748,0.18197999894618988
1711795436020277200,6.08427734375,9.499695777893066,2.4273569583892822,0.18471699953079224
1711795436029926700,6.0939267578125,9.497374534606934,2.4360530376434326,0.18946999311447144
1711795436039575800,6.103575927734375,9.504743576049805,2.4065608978271484,0.1967020034790039
1711795436049225000,6.113224853515625,9.50374698638916,2.4102089405059814,0.20016999542713165
1711795436058874400,6.122874267578125,9.513962745666504,2.370063066482544,0.19420300424098969
1711795436068523300,6.132523193359375,9.513001441955566,2.3741040229797363,0.19189299643039703
1711795436078172400,6.14217236328125,9.526507377624512,2.3202528953552246,0.18015900254249573
1711795436087821800,6.15182177734375,9.524717330932617,2.3274149894714355,0.18239299952983856
1711795436097471200,6.16147119140625,9.537553787231445,2.2732460498809814,0.19442600011825562
1711795436107120000,6.1711201171875,9.535735130310059,2.279594898223877,0.2088010013103485
1711795436116769300,6.180769287109375,9.545500755310059,2.2342700958251953,0.2487190067768097
1711795436126418700,6.190418701171875,9.544939041137695,2.2353289127349854,0.26045599579811096
1711795436136067800,6.20006787109375,9.551563262939453,2.2040250301361084,0.28338000178337097
1711795436145717000,6.209717041015625,9.553179740905762,2.1965749263763428,0.28671300411224365
1711795436155366100,6.2193662109375,9.560001373291016,2.1697659492492676,0.26243600249290466
1711795436165015600,6.229015625,9.563268661499023,2.156532049179077,0.2522850036621094
1711795436174664700,6.238664794921875,9.569074630737305,2.1347761154174805,0.21429899334907532
1711795436184313900,6.24831396484375,9.571735382080078,2.123922109603882,0.203001007437706
1711795436193963300,6.25796337890625,9.577779769897461,2.099174976348877,0.1731639951467514
1711795436203612400,6.2676123046875,9.579004287719727,2.0941081047058105,0.16664400696754456
1711795436213261300,6.27726123046875,9.583967208862305,2.074208974838257,0.12492399662733078
1711795436222910700,6.28691064453125,9.585172653198242,2.0688819885253906,0.12071999907493591
1711795436232559900,6.296559814453125,9.589240074157715,2.052293062210083,0.07033000141382217
1711795436242209000,6.306208984375,9.592814445495605,2.035615921020508,0.06758300215005875
1711795436251858200,6.315858154296875,9.602432250976562,1.990610957145691,0.033737000077962875
1711795436261507300,6.32550732421875,9.609691619873047,1.9552890062332153,0.03247499838471413
1711795436271156700,6.33515673828125,9.623948097229004,1.8841439485549927,0.004244000185281038
1711795436280806000,6.344805908203125,9.633124351501465,1.8366550207138062,0.001908999984152615
1711795436290455300,6.354455322265625,9.650623321533203,1.7423460483551025,-0.009033000096678734
1711795436300104400,6.3641044921875,9.659396171569824,1.69303297996521,-0.009898999705910683
1711795436309753600,6.373753662109375,9.673335075378418,1.6115009784698486,-0.004488000180572271
1711795436319403000,6.383403076171875,9.678933143615723,1.5775419473648071,-0.002334000077098608
1711795436329052200,6.39305224609375,9.684293746948242,1.5442789793014526,0.007860000245273113
1711795436338701300,6.402701416015625,9.685887336730957,1.5342400074005127,0.007947999984025955
1711795436348350200,6.41235009765625,9.682982444763184,1.5524029731750488,0.017078999429941177
1711795436357999600,6.42199951171875,9.682422637939453,1.555899977684021,0.015866000205278397
1711795436367649000,6.43164892578125,9.67637825012207,1.5925170183181763,0.044461000710725784
1711795436377298000,6.4412978515625,9.676386833190918,1.592358946800232,0.04826600104570389
1711795436386947300,6.450947265625,9.669697761535645,1.6312190294265747,0.08042000234127045
1711795436396596500,6.460596435546875,9.670978546142578,1.6232240200042725,0.08773999661207199
1711795436406245600,6.47024560546875,9.664607048034668,1.6584340333938599,0.12384899705648422
1711795436415895000,6.47989501953125,9.666375160217285,1.6475330591201782,0.1312279999256134
1711795436425544200,6.489544189453125,9.66352653503418,1.661695957183838,0.15939800441265106
1711795436435193300,6.499193359375,9.665626525878906,1.6491260528564453,0.16263900697231293
1711795436444842500,6.508842529296875,9.665473937988281,1.6488820314407349,0.1737380027770996
1711795436454491600,6.51849169921875,9.66779613494873,1.6348999738693237,0.17662100493907928
1711795436464141000,6.52814111328125,9.668644905090332,1.6286870241165161,0.18725800514221191
1711795436473790200,6.537790283203125,9.67104434967041,1.6137609481811523,0.19253799319267273
1711795436483439400,6.547439453125,9.670891761779785,1.6137700080871582,0.19991299510002136
1711795436493088800,6.5570888671875,9.673469543457031,1.5981760025024414,0.20043300092220306
1711795436502738000,6.566738037109375,9.673558235168457,1.5980240106582642,0.1974249929189682
1711795436512386800,6.57638671875,9.676614761352539,1.5797970294952393,0.19436000287532806
1711795436522036200,6.5860361328125,9.677924156188965,1.5730270147323608,0.18373100459575653
1711795436531685400,6.595685302734375,9.681257247924805,1.553002953529358,0.17839199304580688
1711795436541334800,6.605334716796875,9.682506561279297,1.5469789505004883,0.16220800578594208
1711795436550984000,6.61498388671875,9.68518352508545,1.5309380292892456,0.1543550044298172
1711795436560633000,6.624633056640625,9.684112548828125,1.5390889644622803,0.13990500569343567
1711795436570282200,6.6342822265625,9.685052871704102,1.533979058265686,0.13053099811077118
1711795436579931400,6.643931396484375,9.67978572845459,1.568058967590332,0.11541599780321121
1711795436589580500,6.65358056640625,9.679025650024414,1.5731539726257324,0.10970299690961838
1711795436599230000,6.66322998046875,9.670417785644531,1.6263519525527954,0.09158600121736526
1711795436608879000,6.672879150390625,9.668877601623535,1.6355730295181274,0.08994799852371216
1711795436618528300,6.6825283203125,9.658727645874023,1.6949299573898315,0.0811230018734932
1711795436628177700,6.692177734375,9.657296180725098,1.7030409574508667,0.08156900107860565
1711795436637826800,6.701826904296875,9.647500991821289,1.758162021636963,0.07054899632930756
1711795436647476000,6.71147607421875,9.64660930633545,1.7630820274353027,0.06971299648284912
1711795436657125000,6.721125,9.636734008789062,1.81705904006958,0.0451820008456707
1711795436666774300,6.730774169921875,9.636125564575195,1.8204580545425415,0.037647001445293427
1711795436676423400,6.74042333984375,9.628310203552246,1.8617180585861206,0.0055959997698664665
1711795436686072800,6.75007275390625,9.628199577331543,1.8622989654541016,-0.002529999939724803
1711795436695722000,6.759721923828125,9.622328758239746,1.8920639753341675,-0.035544998943805695
1711795436705371100,6.76937109375,9.622325897216797,1.8920350074768066,-0.03784700110554695
1711795436715020300,6.779020263671875,9.61913776397705,1.907776951789856,-0.054405998438596725
1711795436724669700,6.788669677734375,9.618045806884766,1.9134219884872437,-0.048843998461961746
1711795436734318800,6.79831884765625,9.61339282989502,1.936426043510437,-0.057635001838207245
1711795436743968000,6.807968017578125,9.609185218811035,1.9574079513549805,-0.05003400146961212
1711795436753617400,6.817617431640625,9.600201606750488,2.0009539127349854,-0.052014999091625214
1711795436763266300,6.827266357421875,9.593340873718262,2.033745050430298,-0.04549799859523773
1711795436772915700,6.836915771484375,9.586195945739746,2.067091941833496,-0.04876599833369255
1711795436782565000,6.846565185546875,9.581059455871582,2.090909957885742,-0.042344000190496445
1711795436792214000,6.856214111328125,9.573030471801758,2.1271700859069824,-0.051201000809669495
1711795436801863200,6.86586328125,9.571017265319824,2.136051893234253,-0.05730000138282776
1711795436811512600,6.8755126953125,9.570699691772461,2.137144088745117,-0.06852299720048904
1711795436821161700,6.88516162109375,9.571573257446289,2.1326539516448975,-0.08455400168895721
1711795436830811000,6.894810791015625,9.57699966430664,2.107764959335327,-0.09373600035905838
1711795436840460300,6.904460205078125,9.57835578918457,2.1009349822998047,-0.1075420007109642
1711795436850109400,6.914109375,9.586832046508789,2.0622310638427734,-0.10128699988126755
1711795436859758600,6.923758544921875,9.58803653717041,2.0565600395202637,-0.10238199681043625
1711795436869407700,6.93340771484375,9.59608268737793,2.019134044647217,-0.09306199848651886
1711795436879057200,6.94305712890625,9.596681594848633,2.0167291164398193,-0.08301500231027603
1711795436888706300,6.952706298828125,9.601802825927734,1.9927870035171509,-0.06754200160503387
1711795436898355500,6.96235546875,9.600634574890137,1.9987119436264038,-0.05786599963903427
1711795436908004600,6.972004638671875,9.603976249694824,1.9829070568084717,-0.04579100012779236
1711795436917654000,6.981654052734375,9.601908683776855,1.992926001548767,-0.04434100165963173
1711795436927303000,6.991302978515625,9.604504585266113,1.980417013168335,-0.04260199889540672
1711795436936952000,7.0009521484375,9.602582931518555,1.989611029624939,-0.04740799963474274
1711795436946601700,7.010601806640625,9.606815338134766,1.9687689542770386,-0.05862300097942352
1711795436956250600,7.020250732421875,9.60507583618164,1.9768890142440796,-0.06937800347805023
1711795436965899800,7.029899658203125,9.610522270202637,1.9496229887008667,-0.08501599729061127
1711795436975549000,7.039548828125,9.6082124710083,1.960479974746704,-0.0956839993596077
1711795436985198300,7.0491982421875,9.613883018493652,1.9321939945220947,-0.10137999802827835
1711795436994847500,7.058847412109375,9.610454559326172,1.9489599466323853,-0.1053519994020462
1711795437004496600,7.06849658203125,9.613521575927734,1.934291958808899,-0.09540300071239471
1711795437014146000,7.07814599609375,9.608785629272461,1.9577850103378296,-0.09334299713373184
1711795437023795200,7.087795166015625,9.609094619750977,1.956969976425171,-0.07718399912118912
1711795437033444400,7.0974443359375,9.603995323181152,1.9817999601364136,-0.07829400151968002
1711795437043093500,7.107093505859375,9.604180335998535,1.9817149639129639,-0.05392200127243996
1711795437052742700,7.11674267578125,9.601052284240723,1.9967570304870605,-0.05613299831748009
1711795437062392000,7.12639208984375,9.603745460510254,1.9844119548797607,-0.024282999336719513
1711795437072041200,7.136041259765625,9.604249954223633,1.981942057609558,-0.025584999471902847
1711795437081690600,7.145690673828125,9.612336158752441,1.9425179958343506,0.0029239999130368233
1711795437091339500,7.155339599609375,9.616183280944824,1.9233770370483398,-0.0016919999616220593
1711795437100988700,7.16498876953125,9.626776695251465,1.8695729970932007,0.016032999381422997
1711795437110638000,7.17463818359375,9.631988525390625,1.84260094165802,0.0030739998910576105
1711795437120287200,7.184287353515625,9.643106460571289,1.7835049629211426,0.0049230000004172325
1711795437129936600,7.1939365234375,9.647950172424316,1.7570860385894775,-0.009205999784171581
1711795437139585800,7.203585693359375,9.658371925354004,1.6988929510116577,-0.0013139999937266111
1711795437149235000,7.21323486328125,9.662995338439941,1.672379970550537,-0.006597999949008226
1711795437158884000,7.222884033203125,9.671870231628418,1.6202789545059204,0.0038320000749081373
1711795437168533500,7.232533447265625,9.676469802856445,1.5925829410552979,-0.0029219998978078365
1711795437178182700,7.2421826171875,9.683334350585938,1.5502699613571167,-0.00911100022494793
1711795437187831800,7.251831787109375,9.687433242797852,1.524330973625183,-0.021181000396609306
1711795437197481200,7.261481201171875,9.691222190856934,1.4997949600219727,-0.0347599983215332
1711795437207130400,7.27113037109375,9.693723678588867,1.4831739664077759,-0.0479080006480217
1711795437216779300,7.280779296875,9.693078994750977,1.4870280027389526,-0.05787000060081482
1711795437226428700,7.2904287109375,9.693650245666504,1.4830230474472046,-0.06460700184106827
1711795437236077800,7.300077880859375,9.689318656921387,1.5109729766845703,-0.06669200211763382
1711795437245727000,7.30972705078125,9.688817977905273,1.5143309831619263,-0.06312700361013412
1711795437255376400,7.31937646484375,9.68322467803955,1.5501270294189453,-0.0516900010406971
1711795437265025300,7.329025390625,9.68335247039795,1.54961097240448,-0.0420599989593029
1711795437274674700,7.3386748046875,9.678105354309082,1.582321047782898,-0.030665000900626183
1711795437284323800,7.34832373046875,9.679586410522461,1.5732860565185547,-0.027835000306367874
1711795437293973000,7.357972900390625,9.675984382629395,1.5953110456466675,-0.026353999972343445
1711795437303622100,7.3676220703125,9.678386688232422,1.5805180072784424,-0.03423900157213211
1711795437313271300,7.377271240234375,9.679194450378418,1.5757629871368408,-0.023264000192284584
1711795437322920700,7.386920654296875,9.682358741760254,1.5561590194702148,-0.026325000450015068
1711795437332569900,7.39656982421875,9.684062004089355,1.5457179546356201,-0.009519999846816063
1711795437342219000,7.406218994140625,9.687050819396973,1.5269030332565308,-0.0030819999519735575
1711795437351868400,7.415868408203125,9.689184188842773,1.5131150484085083,0.023883000016212463
1711795437361517300,7.425517333984375,9.6913423538208,1.4990899562835693,0.03163199871778488
1711795437371166500,7.43516650390625,9.691191673278809,1.4995570182800293,0.050310999155044556
1711795437380816100,7.444816162109375,9.691950798034668,1.4945729970932007,0.052257001399993896
1711795437390465000,7.454465087890625,9.689997673034668,1.506890058517456,0.0601469986140728
1711795437400114200,7.4641142578125,9.689760208129883,1.50845205783844,0.05924399942159653
1711795437409763800,7.473763916015625,9.685871124267578,1.5325649976730347,0.07433799654245377
1711795437419413000,7.4834130859375,9.684976577758789,1.5381829738616943,0.07494600117206573
1711795437429062000,7.493061767578125,9.678515434265137,1.577538013458252,0.08995500206947327
1711795437438711600,7.502711669921875,9.677032470703125,1.5866130590438843,0.08995000272989273
1711795437448360400,7.5123603515625,9.668534278869629,1.6373310089111328,0.09478099644184113
1711795437458009600,7.522009521484375,9.666766166687012,1.647845983505249,0.09294299781322479
1711795437467659000,7.531658935546875,9.657987594604492,1.6985009908676147,0.09354399889707565
1711795437477308200,7.54130810546875,9.656224250793457,1.7086329460144043,0.09103400260210037
1711795437486957300,7.550957275390625,9.649740219116211,1.7440789937973022,0.10532499849796295
1711795437496606700,7.560606689453125,9.648372650146484,1.7515239715576172,0.10705199837684631
1711795437506256000,7.570255859375,9.642822265625,1.7808820009231567,0.12173400074243546
1711795437515905000,7.579905029296875,9.641724586486816,1.786553978919983,0.12556199729442596
1711795437525554200,7.58955419921875,9.636507034301758,1.8137459754943848,0.13580100238323212
1711795437535203300,7.599203369140625,9.635222434997559,1.8204970359802246,0.1365939974784851
1711795437544852500,7.6088525390625,9.630417823791504,1.845147967338562,0.14443400502204895
1711795437554501600,7.618501708984375,9.628655433654785,1.854308009147644,0.14463500678539276
1711795437564151000,7.628151123046875,9.624324798583984,1.876533031463623,0.1462090015411377
1711795437573800200,7.63780029296875,9.622233390808105,1.886984944343567,0.1493140012025833
1711795437583449300,7.647449462890625,9.615169525146484,1.9221609830856323,0.15556000173091888
1711795437593098800,7.6570986328125,9.612358093261719,1.935973048210144,0.1580130010843277
1711795437602748000,7.666747802734375,9.605369567871094,1.9695730209350586,0.1675270050764084
1711795437612397000,7.67639697265625,9.602567672729492,1.9831479787826538,0.16791200637817383
1711795437622046200,7.686046142578125,9.598448753356934,2.0034780502319336,0.1619900017976761
1711795437631695600,7.695695556640625,9.597334861755371,2.0087978839874268,0.1621060073375702
1711795437641344800,7.7053447265625,9.596970558166504,2.01096510887146,0.15671999752521515
1711795437650994000,7.714993896484375,9.59825611114502,2.0050559043884277,0.15370400249958038
1711795437660643000,7.72464306640625,9.603633880615234,1.9799660444259644,0.14261099696159363
1711795437670292200,7.734292236328125,9.605952262878418,1.9689639806747437,0.13873200118541718
1711795437679941600,7.743941650390625,9.612208366394043,1.938843011856079,0.12931999564170837
1711795437689590800,7.7535908203125,9.61353874206543,1.932136058807373,0.1308169960975647
1711795437699240200,7.763240234375,9.618982315063477,1.9048420190811157,0.13089899718761444
1711795437708889300,7.772889404296875,9.619301795959473,1.9026509523391724,0.13904500007629395
1711795437718538200,7.782538330078125,9.625585556030273,1.8708230257034302,0.1360899955034256
1711795437728187600,7.792187744140625,9.626055717468262,1.8674449920654297,0.14862099289894104
1711795437737836800,7.8018369140625,9.631697654724121,1.8393219709396362,0.13291099667549133
1711795437747486000,7.81148583984375,9.631853103637695,1.838117003440857,0.13821999728679657
1711795437757135400,7.82113525390625,9.637077331542969,1.8122379779815674,0.11365800350904465
1711795437766784500,7.830784423828125,9.635763168334961,1.819411039352417,0.11042799800634384
1711795437776433700,7.84043359375,9.641135215759277,1.7923510074615479,0.0798799991607666
1711795437786082800,7.850082763671875,9.63851547241211,1.8063709735870361,0.0801599994301796
1711795437795732000,7.85973193359375,9.643362998962402,1.7814760208129883,0.04777999967336655
1711795437805381400,7.86938134765625,9.641229629516602,1.792801022529602,0.05411799997091293
1711795437815030300,7.8790302734375,9.646965980529785,1.7623319625854492,0.024904999881982803
1711795437824679400,7.888679443359375,9.64712905883789,1.761381983757019,0.028766000643372536
1711795437834328800,7.898328857421875,9.654349327087402,1.7215770483016968,-0.009979000315070152
1711795437843978000,7.90797802734375,9.656585693359375,1.708981990814209,-0.0103169996291399
1711795437853627100,7.917627197265625,9.666386604309082,1.6520450115203857,-0.04585999995470047
1711795437863276500,7.927276611328125,9.66929817199707,1.6349610090255737,-0.04442699998617172
1711795437872925700,7.93692578125,9.67914867401123,1.5750069618225098,-0.06181899830698967
1711795437882574800,7.946574951171875,9.680855751037598,1.5647259950637817,-0.05516200140118599
1711795437892224000,7.95622412109375,9.687143325805664,1.5246920585632324,-0.07026100158691406
1711795437901873400,7.965873291015625,9.686817169189453,1.52708101272583,-0.06310199946165085
1711795437911522600,7.9755224609375,9.688492774963379,1.5154060125350952,-0.08385200053453445
1711795437921171700,7.985171630859375,9.68669605255127,1.5270969867706299,-0.0792900025844574
1711795437930820900,7.99482080078125,9.687006950378418,1.523988962173462,-0.09876500070095062
1711795437940470300,8.00447021484375,9.685500144958496,1.5340360403060913,-0.09065700322389603
1711795437950119400,8.014119384765625,9.685308456420898,1.534546971321106,-0.10178600251674652
1711795437959768600,8.0237685546875,9.684496879577637,1.5403519868850708,-0.09067100286483765
1711795437969418000,8.03341796875,9.682928085327148,1.5501270294189453,-0.09157200157642365
1711795437979067100,8.043067138671875,9.682311058044434,1.5544840097427368,-0.08267900347709656
1711795437988716300,8.05271630859375,9.68091106414795,1.563431978225708,-0.07771699875593185
1711795437998365400,8.062365478515625,9.680842399597168,1.5640699863433838,-0.07321999967098236
1711795438008014600,8.0720146484375,9.680665016174316,1.564864993095398,-0.07953500002622604
1711795438017664000,8.0816640625,9.682194709777832,1.5556190013885498,-0.0745059996843338
1711795438027313200,8.091313232421875,9.686452865600586,1.5287070274353027,-0.07789099961519241
1711795438036962300,8.10096240234375,9.69032096862793,1.504425048828125,-0.06903199851512909
1711795438046611500,8.110611572265626,9.698220252990723,1.4530760049819946,-0.05908000096678734
1711795438056260600,8.120260498046875,9.703351974487305,1.41874098777771,-0.05014999955892563
1711795438065910000,8.129909912109374,9.710009574890137,1.3729039430618286,-0.03529300168156624
1711795438075559200,8.13955908203125,9.7139892578125,1.3444980382919312,-0.033675000071525574
1711795438085208300,8.149208251953125,9.71864128112793,1.3107099533081055,-0.020935000851750374
1711795438094857700,8.158857666015624,9.720305442810059,1.298233985900879,-0.02550400048494339
1711795438104506600,8.168506591796875,9.719870567321777,1.3014470338821411,-0.026962000876665115
1711795438114155800,8.17815576171875,9.719284057617188,1.3057529926300049,-0.03011300042271614
1711795438123805200,8.18780517578125,9.715394973754883,1.33446204662323,-0.026451999321579933
1711795438133454300,8.197454345703125,9.714098930358887,1.3439480066299438,-0.021743999794125557
1711795438143103700,8.207103759765625,9.707487106323242,1.3909989595413208,-0.014070999808609486
1711795438152753000,8.2167529296875,9.706788063049316,1.3959189653396606,-0.008213999681174755
1711795438162402000,8.226402099609375,9.70012378692627,1.441519021987915,0.00508800009265542
1711795438172051200,8.23605126953125,9.70065975189209,1.4378809928894043,0.009170999750494957
1711795438181700400,8.245700439453126,9.695557594299316,1.4718730449676514,0.011532999575138092
1711795438191349800,8.255349853515625,9.697044372558594,1.4620330333709717,0.013628000393509865
1711795438200999000,8.2649990234375,9.694881439208984,1.4762719869613647,0.0168210007250309
1711795438210648000,8.27464794921875,9.696843147277832,1.4632890224456787,0.02049200050532818
1711795438220297500,8.28429736328125,9.695825576782227,1.4699050188064575,0.026923000812530518
1711795438229946600,8.293946533203124,9.697467803955078,1.458886981010437,0.03396899998188019
1711795438239595800,8.303595703125,9.696142196655273,1.467411994934082,0.04370599985122681
1711795438249245000,8.313244873046875,9.69681453704834,1.4626959562301636,0.051865000277757645
1711795438258894300,8.322894287109374,9.694467544555664,1.4777480363845825,0.06277500092983246
1711795438268543200,8.332543212890625,9.693764686584473,1.4819259643554688,0.07214199751615524
1711795438278192400,8.3421923828125,9.688508033752441,1.5157300233840942,0.07593200355768204
1711795438287841800,8.351841796875,9.68679141998291,1.526258945465088,0.08353400230407715
1711795438297491200,8.3614912109375,9.679903984069824,1.5693529844284058,0.0835840031504631
1711795438307140000,8.37114013671875,9.678473472595215,1.5779269933700562,0.08782199770212173
1711795438316789500,8.38078955078125,9.671856880187988,1.6180189847946167,0.08718100190162659
1711795438326438700,8.390438720703125,9.670809745788574,1.624271035194397,0.08696600049734116
1711795438336087800,8.400087890625,9.66383171081543,1.6654510498046875,0.08370800316333771
1711795438345737000,8.409737060546876,9.66241455078125,1.6736359596252441,0.08409900218248367
1711795438355386000,8.41938623046875,9.65413761138916,1.7207210063934326,0.08438900113105774
1711795438365035500,8.429035400390624,9.651775360107422,1.7337299585342407,0.08825699985027313
1711795438374684700,8.4386845703125,9.642566680908203,1.7841860055923462,0.08935599774122238
1711795438384333800,8.448333740234375,9.639819145202637,1.7987420558929443,0.0937729999423027
1711795438393983000,8.45798291015625,9.63049602508545,1.8480260372161865,0.09342499822378159
1711795438403632000,8.467632080078126,9.628292083740234,1.8591480255126953,0.09977900236845016
1711795438413281300,8.47728125,9.622243881225586,1.8901740312576294,0.10031600296497345
1711795438422930700,8.4869306640625,9.620890617370605,1.8966339826583862,0.1078919991850853
1711795438432579800,8.496579833984375,9.615974426269531,1.9213809967041016,0.10825199633836746
1711795438442229000,8.50622900390625,9.614291191101074,1.9295669794082642,0.11198200285434723
1711795438451878100,8.515878173828124,9.61007022857666,1.950543999671936,0.11097200214862823
1711795438461527600,8.525527587890625,9.607609748840332,1.9625320434570312,0.11263599991798401
1711795438471176700,8.5351767578125,9.603741645812988,1.9817650318145752,0.10554099828004837
1711795438480825900,8.544825927734376,9.599935531616211,2.0001120567321777,0.105772003531456
1711795438490475300,8.554475341796875,9.59327220916748,2.032104969024658,0.10036099702119827
1711795438500124400,8.56412451171875,9.587615966796875,2.058634042739868,0.10010600090026855
1711795438509773600,8.573773681640626,9.579163551330566,2.0977590084075928,0.09709600359201431
1711795438519423000,8.583423095703125,9.573576927185059,2.122891902923584,0.10170000046491623
1711795438529072000,8.593072021484375,9.56590461730957,2.157331943511963,0.09887000173330307
1711795438538721000,8.602720947265626,9.563302993774414,2.16851806640625,0.1056390032172203
1711795438548370400,8.612370361328125,9.560500144958496,2.1813900470733643,0.09369000047445297
1711795438558019600,8.62201953125,9.562159538269043,2.1742630004882812,0.08966299891471863
1711795438567669000,8.6316689453125,9.56816291809082,2.1482059955596924,0.07652900367975235
1711795438577318100,8.641318115234375,9.572962760925293,2.1271049976348877,0.06473299860954285
1711795438586967300,8.65096728515625,9.582855224609375,2.082418918609619,0.05313099920749664
1711795438596616400,8.660616455078125,9.58739185333252,2.061707019805908,0.04090699926018715
1711795438606265600,8.670265625,9.597804069519043,2.012765884399414,0.036364998668432236
1711795438615915000,8.6799150390625,9.599976539611816,2.002437114715576,0.032552000135183334
1711795438625564200,8.689564208984375,9.609580993652344,1.9557499885559082,0.0371830016374588
1711795438635213300,8.69921337890625,9.609031677246094,1.9583630561828613,0.04158699885010719
1711795438644862500,8.708862548828124,9.61397933959961,1.9335579872131348,0.05597599968314171
1711795438654511900,8.718511962890625,9.611416816711426,1.9460300207138062,0.0633459985256195
1711795438664161000,8.7281611328125,9.61307144165039,1.937237024307251,0.07972700148820877
1711795438673810000,8.737809814453126,9.609742164611816,1.9536060094833374,0.08161599934101105
1711795438683459300,8.747459228515625,9.612221717834473,1.940492033958435,0.10037799924612045
1711795438693108500,8.7571083984375,9.609025955200195,1.9564249515533447,0.0970660001039505
1711795438702757600,8.766757568359376,9.613495826721191,1.9333590269088745,0.11493299901485443
1711795438712407000,8.776406982421875,9.610383987426758,1.9489779472351074,0.11130700260400772
1711795438722056200,8.78605615234375,9.617018699645996,1.9144220352172852,0.13540400564670563
1711795438731705300,8.795705322265626,9.613950729370117,1.9298169612884521,0.13466200232505798
1711795438741354500,8.8053544921875,9.621313095092773,1.8888440132141113,0.18163399398326874
1711795438751003600,8.815003662109374,9.618593215942383,1.902243971824646,0.18575699627399445
1711795438760653000,8.824653076171876,9.625057220458984,1.8639930486679077,0.23277300596237183
1711795438770302200,8.83430224609375,9.623056411743164,1.874222993850708,0.23338299989700317
1711795438779951600,8.84395166015625,9.629128456115723,1.8398900032043457,0.2551420032978058
1711795438789600800,8.853600830078125,9.627769470214844,1.848451018333435,0.24427899718284607
1711795438799250000,8.86325,9.634320259094238,1.812059998512268,0.2582879960536957
1711795438808899000,8.872899169921874,9.63323974609375,1.820085048675537,0.2416280061006546
1711795438818548200,8.88254833984375,9.639416694641113,1.7837170362472534,0.26530298590660095
1711795438828197400,8.892197265625,9.638053894042969,1.792605996131897,0.25468701124191284
1711795438837846800,8.9018466796875,9.643439292907715,1.7587529420852661,0.2850410044193268
1711795438847496000,8.911495849609375,9.641676902770996,1.7689290046691895,0.2817069888114929
1711795438857145000,8.92114501953125,9.644745826721191,1.7458490133285522,0.31824299693107605
1711795438866794200,8.930794189453126,9.643315315246582,1.7537389993667603,0.318217009305954
1711795438876443400,8.940443359375,9.644301414489746,1.7432559728622437,0.34481000900268555
1711795438886092800,8.9500927734375,9.644206047058105,1.7432130575180054,0.3476729989051819
1711795438895742000,8.959741943359376,9.645185470581055,1.7345930337905884,0.36325299739837646
1711795438905391000,8.96939111328125,9.647112846374512,1.7234699726104736,0.3650279939174652
1711795438915040300,8.979040283203124,9.65126895904541,1.698261022567749,0.3732289969921112
1711795438924689700,8.988689697265626,9.655024528503418,1.676743984222412,0.3733539879322052
1711795438934338600,8.998338623046875,9.661523818969727,1.6377400159835815,0.37833601236343384
1711795438943987700,9.00798779296875,9.66598129272461,1.6108829975128174,0.3798010051250458
1711795438953637400,9.017637451171876,9.673666000366211,1.5638829469680786,0.3805840015411377
1711795438963286300,9.027286376953125,9.677539825439453,1.5394359827041626,0.38178500533103943
1711795438972935700,9.036935791015624,9.682459831237793,1.509695053100586,0.3757469952106476
1711795438982584800,9.046584716796875,9.684770584106445,1.4946939945220947,0.37615299224853516
1711795438992234000,9.05623388671875,9.685397148132324,1.4936579465866089,0.3639349937438965
1711795439001883100,9.065883056640626,9.68625259399414,1.4884979724884033,0.3623040020465851
1711795439011532300,9.0755322265625,9.683732032775879,1.5083019733428955,0.34750398993492126
1711795439021181700,9.085181640625,9.68385124206543,1.5088930130004883,0.34153398871421814
1711795439030830800,9.094830810546876,9.679383277893066,1.5422999858856201,0.31816598773002625
1711795439040480000,9.10447998046875,9.679622650146484,1.542773962020874,0.30846500396728516
1711795439050129400,9.11412939453125,9.675765037536621,1.5716240406036377,0.2827390134334564
1711795439059778600,9.123778564453126,9.676811218261719,1.5673270225524902,0.27052798867225647
1711795439069427700,9.133427734375,9.6730318069458,1.594346046447754,0.24679699540138245
1711795439079077000,9.1430771484375,9.674663543701172,1.5862699747085571,0.2345000058412552
1711795439088726300,9.152726318359376,9.673620223999023,1.5955849885940552,0.21348699927330017
1711795439098375200,9.162375244140625,9.675695419311523,1.5840840339660645,0.20492400228977203
1711795439108024600,9.172024658203124,9.676101684570312,1.5829730033874512,0.19398300349712372
1711795439117674000,9.181674072265626,9.67815113067627,1.571328043937683,0.18629400432109833
1711795439127323000,9.191322998046875,9.68005657196045,1.5605989694595337,0.1772489994764328
1711795439136972300,9.20097216796875,9.682535171508789,1.546044945716858,0.16927699744701385
1711795439146621400,9.210621337890625,9.684948921203613,1.532148003578186,0.15705999732017517
1711795439156270600,9.2202705078125,9.68734073638916,1.5181690454483032,0.14484700560569763
1711795439165919700,9.229919677734374,9.6890230178833,1.5080939531326294,0.13738800585269928
1711795439175569200,9.239569091796875,9.69025707244873,1.5012359619140625,0.12487500160932541
1711795439185218300,9.24921826171875,9.688706398010254,1.51174795627594,0.11820200085639954
1711795439194867500,9.258867431640626,9.687769889831543,1.518347978591919,0.11008600145578384
1711795439204516900,9.268516845703125,9.681547164916992,1.5580949783325195,0.10194899886846542
1711795439214166000,9.278166015625,9.678607940673828,1.5767079591751099,0.09449700266122818
1711795439223815000,9.28781494140625,9.668176651000977,1.639691948890686,0.09026399999856949
1711795439233464300,9.29746435546875,9.664533615112305,1.6613810062408447,0.08356399834156036
1711795439243113500,9.307113525390625,9.652515411376953,1.730018973350525,0.07974699884653091
1711795439252762600,9.3167626953125,9.649519920349121,1.7467670440673828,0.07723099738359451
1711795439262411800,9.326411865234375,9.636832237243652,1.8154540061950684,0.07726799696683884
1711795439272061200,9.336061279296874,9.635347366333008,1.823472023010254,0.07354199886322021
1711795439281710300,9.34571044921875,9.625349998474121,1.8760340213775635,0.05925200134515762
1711795439291359500,9.355359375,9.625492095947266,1.8756990432739258,0.045423999428749084
1711795439301008600,9.365008544921874,9.620211601257324,1.9030259847640991,0.01999799907207489
1711795439310658000,9.374657958984375,9.620716094970703,1.9005789756774902,0.00008299999899463728
1711795439320307200,9.38430712890625,9.61581039428711,1.9251370429992676,-0.020406000316143036
1711795439329956400,9.393956298828124,9.615059852600098,1.9286270141601562,-0.03737099841237068
1711795439339605500,9.40360546875,9.608183860778809,1.9623769521713257,-0.04761600121855736
1711795439349255000,9.4132548828125,9.606915473937988,1.9683339595794678,-0.05701800063252449
1711795439358903800,9.42290380859375,9.59826374053955,2.0096919536590576,-0.0698229968547821
1711795439368553000,9.432552978515625,9.597806930541992,2.0115249156951904,-0.07901400327682495
1711795439378202400,9.442202392578125,9.59138298034668,2.0414719581604004,-0.09028299897909164
1711795439387851800,9.451851806640626,9.591986656188965,2.038094997406006,-0.10170699656009674
1711795439397501000,9.4615009765625,9.587118148803711,2.0606729984283447,-0.105772003531456
1711795439407150000,9.471150146484375,9.587528228759766,2.058195114135742,-0.11624199897050858
1711795439416799200,9.48079931640625,9.582748413085938,2.08076810836792,-0.10834500193595886
1711795439426448400,9.490448486328125,9.582139015197754,2.0833020210266113,-0.11337699741125107
1711795439436097500,9.50009765625,9.575000762939453,2.1164920330047607,-0.10108300298452377
1711795439445746700,9.50974658203125,9.573707580566406,2.122298002243042,-0.10174500197172165
1711795439455396000,9.51939599609375,9.563937187194824,2.1664180755615234,-0.09013199806213379
1711795439465045000,9.529044921875,9.562559127807617,2.172468900680542,-0.09073100239038467
1711795439474694100,9.538694091796875,9.553146362304688,2.2140259742736816,-0.07665900141000748
1711795439484343800,9.54834375,9.55203628540039,2.2188990116119385,-0.07386700063943863
1711795439493992700,9.55799267578125,9.543087005615234,2.257762908935547,-0.04886699840426445
1711795439503641900,9.567641845703125,9.541509628295898,2.264580011367798,-0.04058299958705902
1711795439513291300,9.577291259765625,9.53188419342041,2.305094003677368,-0.01090100035071373
1711795439522940400,9.5869404296875,9.528434753417969,2.319333076477051,0.0036200000904500484
1711795439532589600,9.596589599609375,9.514837265014648,2.3742990493774414,0.03112499974668026
1711795439542238700,9.60623876953125,9.5083589553833,2.399928092956543,0.042840998619794846
1711795439551888100,9.61588818359375,9.488908767700195,2.475334882736206,0.060885000973939896
1711795439561537300,9.625537353515625,9.480682373046875,2.5064170360565186,0.07004000246524811
1711795439571186400,9.6351865234375,9.468016624450684,2.553852081298828,0.06997799873352051
1711795439580835600,9.644835693359376,9.4628324508667,2.572571039199829,0.08414000272750854
1711795439590484700,9.654484619140625,9.456936836242676,2.594233989715576,0.08179499953985214
1711795439600134100,9.664134033203124,9.456137657165527,2.5968880653381348,0.08955200016498566
1711795439609783300,9.673783203125,9.463866233825684,2.5690650939941406,0.07431899756193161
1711795439619432700,9.6834326171875,9.466202735900879,2.560270071029663,0.08015800267457962
1711795439629081900,9.693081787109374,9.482574462890625,2.4995720386505127,0.057739999145269394
1711795439638730800,9.702730712890625,9.483619689941406,2.4953460693359375,0.06785699725151062
1711795439648380000,9.7123798828125,9.50065803527832,2.4299099445343018,0.05850299820303917
1711795439658029300,9.722029296875,9.49775505065918,2.44071888923645,0.07687900215387344
1711795439667678500,9.731678466796875,9.50813102722168,2.3997650146484375,0.08341799676418304
1711795439677327600,9.74132763671875,9.501699447631836,2.423996925354004,0.11101999878883362
1711795439686977000,9.75097705078125,9.508204460144043,2.397939920425415,0.11977799981832504
1711795439696626200,9.760626220703125,9.50127124786377,2.42309308052063,0.15763099491596222
1711795439706275300,9.770275390625,9.509085655212402,2.391761064529419,0.16477300226688385
1711795439715924700,9.7799248046875,9.504377365112305,2.4067790508270264,0.21123899519443512
1711795439725574000,9.789573974609375,9.515074729919434,2.362112045288086,0.23273999989032745
1711795439735222800,9.799222900390625,9.513484954833984,2.3648290634155273,0.2675260007381439
1711795439744872200,9.8088720703125,9.529133796691895,2.298922061920166,0.28453299403190613
1711795439754521300,9.818521240234375,9.5298490524292,2.293739080429077,0.3018670082092285
1711795439764170500,9.82817041015625,9.54962158203125,2.209713935852051,0.3037799894809723
1711795439773820000,9.83781982421875,9.551504135131836,2.1998510360717773,0.3159100115299225
1711795439783469000,9.847468994140625,9.570343971252441,2.1181960105895996,0.30354899168014526
1711795439793118200,9.8571181640625,9.572147369384766,2.1087028980255127,0.3126699924468994
1711795439802767400,9.866767333984376,9.588393211364746,2.0387990474700928,0.27639898657798767
1711795439812416800,9.876416748046875,9.590635299682617,2.0278139114379883,0.2794339954853058
1711795439822065700,9.886065673828124,9.604402542114258,1.9659980535507202,0.24634000658988953
1711795439831715000,9.895715087890625,9.608193397521973,1.9470360279083252,0.2490909993648529
1711795439841364500,9.905364501953125,9.62197494506836,1.8828400373458862,0.2071170061826706
1711795439851013400,9.915013427734374,9.627265930175781,1.8565770387649536,0.19811999797821045
1711795439860662500,9.92466259765625,9.639772415161133,1.795807957649231,0.14236100018024445
1711795439870312000,9.93431201171875,9.645419120788574,1.7666130065917969,0.12396799772977829
1711795439879961000,9.943961181640624,9.6590576171875,1.6937299966812134,0.06543800234794617
1711795439889610200,9.9536103515625,9.665104866027832,1.6593879461288452,0.05075500160455704
1711795439899259600,9.963259765625,9.679398536682129,1.5745890140533447,0.01727600023150444
1711795439908908800,9.97290869140625,9.686288833618164,1.5316959619522095,0.010007999837398529
1711795439918558000,9.982557861328125,9.700593948364258,1.43831205368042,-0.011106000281870365
1711795439928206800,9.992206787109374,9.707894325256348,1.3880809545516968,-0.02026900090277195
1711795439937856300,10.001856201171876,9.720465660095215,1.2963809967041016,-0.04843299835920334
1711795439947505700,10.011505615234375,9.726863861083984,1.246392011642456,-0.07084000110626221
1711795439957154600,10.021154541015624,9.735933303833008,1.171584963798523,-0.09685999900102615
1711795439966803700,10.0308037109375,9.741218566894531,1.1245800256729126,-0.11987999826669693
1711795439976453000,10.040453125,9.748758316040039,1.0557210445404053,-0.13248999416828156
1711795439986102300,10.050102294921874,9.753167152404785,1.0118659734725952,-0.14917400479316711
1711795439995751400,10.05975146484375,9.758466720581055,0.958141028881073,-0.1571660041809082
1711795440005400600,10.069400634765625,9.761725425720215,0.9231240153312683,-0.16416700184345245
1711795440015050000,10.079050048828124,9.764314651489258,0.8956689834594727,-0.16226600110530853
1711795440024699100,10.08869921875,9.766316413879395,0.8744069933891296,-0.15767599642276764
1711795440034348000,10.09834814453125,9.766819953918457,0.8708620071411133,-0.145688995718956
1711795440043997200,10.1079970703125,9.76806354522705,0.8583109974861145,-0.13640399277210236
1711795440053646600,10.117646484375,9.767762184143066,0.8629220128059387,-0.12869800627231598
1711795440063295700,10.127295654296875,9.768874168395996,0.8515120148658752,-0.12006200104951859
1711795440072945000,10.13694482421875,9.768840789794922,0.8525850176811218,-0.1150519996881485
1711795440082594000,10.146593994140625,9.77067756652832,0.832988977432251,-0.10192800313234329
1711795440092243500,10.156243408203125,9.77121353149414,0.8259310126304626,-0.1076980009675026
1711795440101892600,10.165892578125,9.773740768432617,0.7970160245895386,-0.09561499953269958
1711795440111541800,10.175541748046875,9.775186538696289,0.7761430144309998,-0.1170710027217865
1711795440121191200,10.185191162109374,9.777488708496094,0.7473800182342529,-0.11192599684000015
1711795440130840300,10.19484033203125,9.778636932373047,0.7267299890518188,-0.14319099485874176
1711795440140489500,10.204489501953125,9.779731750488281,0.7124879956245422,-0.13993099331855774
1711795440150139000,10.214138916015624,9.779417037963867,0.711562991142273,-0.16451799869537354
1711795440159788000,10.2237880859375,9.779033660888672,0.7188090085983276,-0.15554599463939667
1711795440169437200,10.233437255859375,9.776447296142578,0.7478200197219849,-0.17951199412345886
1711795440179086300,10.24308642578125,9.775322914123535,0.7670890092849731,-0.1581519991159439
1711795440188735500,10.252735595703125,9.769761085510254,0.8272619843482971,-0.19436800479888916
1711795440198384600,10.262384521484375,9.768316268920898,0.8482829928398132,-0.17551499605178833
1711795440208033800,10.27203369140625,9.761943817138672,0.9105259776115417,-0.21395300328731537
1711795440217683200,10.28168310546875,9.761202812194824,0.9212110042572021,-0.2017049938440323
1711795440227332000,10.29133203125,9.755393028259277,0.969868004322052,-0.24913999438285828
1711795440236981200,10.300981201171876,9.7556734085083,0.9682270288467407,-0.24445399641990662
1711795440246630700,10.310630615234375,9.751876831054688,0.9898620247840881,-0.30244600772857666
1711795440256279800,10.32027978515625,9.752930641174316,0.9776350259780884,-0.3081449866294861
1711795440265929000,10.329928955078126,9.750517845153809,0.9763380289077759,-0.38019299507141113
1711795440275578400,10.339578369140625,9.751431465148926,0.9620699882507324,-0.3929229974746704
1711795440285227500,10.3492275390625,9.748931884765625,0.9524440169334412,-0.47071000933647156
1711795440294876700,10.358876708984376,9.748697280883789,0.9481840133666992,-0.4839870035648346
1711795440304525800,10.36852587890625,9.745448112487793,0.9422510266304016,-0.5556899905204773
1711795440314175200,10.37817529296875,9.744121551513672,0.9560760259628296,-0.5553359985351562
1711795440323824400,10.387824462890626,9.737907409667969,0.973816990852356,-0.6286759972572327
1711795440333473300,10.397473388671875,9.734980583190918,1.0082950592041016,-0.6195809841156006
1711795440343122400,10.407122314453124,9.725282669067383,1.0518120527267456,-0.6949449777603149
1711795440352771800,10.416771728515625,9.720999717712402,1.0995370149612427,-0.6808500289916992
1711795440362421000,10.4264208984375,9.71109390258789,1.1440240144729614,-0.7458209991455078
1711795440372070100,10.436070068359374,9.706439018249512,1.1954669952392578,-0.7254649996757507
1711795440381719600,10.445719482421875,9.699556350708008,1.2256569862365723,-0.7659990191459656
1711795440391368700,10.45536865234375,9.695682525634766,1.2737809419631958,-0.7359319925308228
1711795440401017900,10.465017822265626,9.692594528198242,1.2858519554138184,-0.7553799748420715
1711795440410667000,10.4746669921875,9.689436912536621,1.325245976448059,-0.7272710204124451
1711795440420316400,10.48431640625,9.688661575317383,1.3160860538482666,-0.7537490129470825
1711795440429965600,10.493965576171876,9.684612274169922,1.3449610471725464,-0.7548149824142456
1711795440439614700,10.50361474609375,9.684000015258789,1.3207910060882568,-0.8037670254707336
1711795440449264000,10.51326416015625,9.678336143493652,1.3425970077514648,-0.8352400064468384
1711795440458913000,10.5229130859375,9.675348281860352,1.320618987083435,-0.9022219777107239
1711795440468562200,10.532562255859375,9.668472290039062,1.3426799774169922,-0.9424650073051453
1711795440478211300,10.54221142578125,9.666533470153809,1.3176219463348389,-0.9961900115013123
1711795440487860700,10.55186083984375,9.65989875793457,1.3443570137023926,-1.0244309902191162
1711795440497510000,10.561510009765625,9.662541389465332,1.3149540424346924,-1.0375759601593018
1711795440507159000,10.571158935546874,9.656144142150879,1.3504799604415894,-1.051414966583252
1711795440516808400,10.580808349609375,9.655573844909668,1.3300909996032715,-1.0821939706802368
1711795440526457300,10.590457275390625,9.650248527526855,1.3688230514526367,-1.0813909769058228
1711795440536106500,10.6001064453125,9.653191566467285,1.3418699502944946,-1.0888760089874268
1711795440545756200,10.609756103515625,9.647811889648438,1.3780349493026733,-1.0913889408111572
1711795440555405000,10.619405029296875,9.651805877685547,1.349450945854187,-1.0917880535125732
1711795440565054200,10.62905419921875,9.646683692932129,1.379372000694275,-1.0996309518814087
1711795440574703600,10.63870361328125,9.656397819519043,1.3264989852905273,-1.0792449712753296
1711795440584352800,10.648352783203125,9.651997566223145,1.3444440364837646,-1.0962640047073364
1711795440594001700,10.658001708984376,9.662635803222656,1.2743010520935059,-1.086277961730957
1711795440603650800,10.66765087890625,9.657793045043945,1.2856889963150024,-1.1155409812927246
1711795440613300200,10.67730029296875,9.670482635498047,1.2046600580215454,-1.0958800315856934
1711795440622949400,10.686949462890626,9.664320945739746,1.2166630029678345,-1.1362249851226807
1711795440632598500,10.6965986328125,9.678037643432617,1.1314610242843628,-1.1071399450302124
1711795440642247700,10.70624755859375,9.672388076782227,1.1385960578918457,-1.1484320163726807
1711795440651897000,10.71589697265625,9.683473587036133,1.0594890117645264,-1.1305749416351318
1711795440661546200,10.725546142578125,9.67654037475586,1.0655139684677124,-1.183061957359314
1711795440671195400,10.7351953125,9.686636924743652,0.9891110062599182,-1.166661024093628
1711795440680844800,10.7448447265625,9.678255081176758,0.9997439980506897,-1.2256799936294556
1711795440690493700,10.75449365234375,9.686914443969727,0.9333699941635132,-1.209501028060913
1711795440700142800,10.764142822265624,9.680816650390625,0.9443860054016113,-1.2491240501403809
1711795440709792500,10.77379248046875,9.695034980773926,0.8684149980545044,-1.1927039623260498
1711795440719441400,10.78344140625,9.691573143005371,0.8717020153999329,-1.2181580066680908
1711795440729090600,10.793090576171876,9.706141471862793,0.8008670210838318,-1.148826003074646
1711795440738739700,10.80273974609375,9.70157527923584,0.8083909749984741,-1.1816630363464355
1711795440748388900,10.812388916015625,9.714051246643066,0.7615140080451965,-1.108016014099121
1711795440758038300,10.822038330078126,9.709465980529785,0.7793689966201782,-1.1354409456253052
1711795440767687400,10.8316875,9.72192096710205,0.759801983833313,-1.0379530191421509
1711795440777336300,10.84133642578125,9.719962120056152,0.779217004776001,-1.0419000387191772
1711795440786985700,10.85098583984375,9.731036186218262,0.7559329867362976,-0.951777994632721
1711795440796635000,10.860634765625,9.730040550231934,0.7687309980392456,-0.9517040252685547
1711795440806284000,10.870283935546874,9.739289283752441,0.7448660135269165,-0.8728079795837402
1711795440815933200,10.87993310546875,9.738141059875488,0.7462319731712341,-0.8843880295753479
1711795440825582600,10.88958251953125,9.747596740722656,0.711916983127594,-0.8049250245094299
1711795440835231700,10.899231689453124,9.74728775024414,0.6976379752159119,-0.821012020111084
1711795440844881000,10.908880859375,9.758101463317871,0.647799015045166,-0.7281550168991089
1711795440854530000,10.918530029296875,9.759689331054688,0.6197609901428223,-0.7312729954719543
1711795440864179200,10.92817919921875,9.77006721496582,0.5627449750900269,-0.6320509910583496
1711795440873828400,10.937828369140625,9.772293090820312,0.52947998046875,-0.6263430118560791
1711795440883477500,10.9474775390625,9.781448364257812,0.4729120135307312,-0.5196040272712708
1711795440893127000,10.957126953125,9.782590866088867,0.4405289888381958,-0.5265200138092041
1711795440902776000,10.966776123046875,9.788727760314941,0.398171991109848,-0.4389140009880066
1711795440912425200,10.97642529296875,9.789068222045898,0.37805798649787903,-0.44899898767471313
1711795440922074400,10.986074462890626,9.794193267822266,0.35181498527526855,-0.34699299931526184
1711795440931723500,10.9957236328125,9.794743537902832,0.343639999628067,-0.33950600028038025
1711795440941373000,11.005373046875,9.798036575317383,0.33667901158332825,-0.23561500012874603
1711795440951022000,11.01502197265625,9.798498153686523,0.3365960121154785,-0.2156819999217987
1711795440960671200,11.024671142578125,9.799766540527344,0.34802499413490295,-0.11753100156784058
1711795440970320400,11.0343203125,9.799091339111328,0.36498600244522095,-0.12239500135183334
1711795440979969500,11.043969482421875,9.797871589660645,0.408720999956131,-0.07102999836206436
1711795440989619000,11.053618896484375,9.79671859741211,0.4325700104236603,-0.08701000362634659
1711795440999268000,11.06326806640625,9.794772148132324,0.48187100887298584,-0.024759000167250633
1711795441008917200,11.072917236328125,9.794158935546875,0.49375098943710327,-0.03225399926304817
1711795441018566400,11.08256640625,9.791877746582031,0.5367479920387268,0.03784000128507614
1711795441028215600,11.092215576171874,9.792058944702148,0.5338220000267029,0.0316540002822876
1711795441037864700,11.10186474609375,9.789840698242188,0.5698019862174988,0.06879600137472153
1711795441047513900,11.111513916015625,9.790593147277832,0.5581459999084473,0.056007999926805496
1711795441057163300,11.121163330078126,9.788919448852539,0.5823339819908142,0.09117799997329712
1711795441066812400,11.1308125,9.79008960723877,0.5630769729614258,0.08650899678468704
1711795441076461600,11.140461669921875,9.788615226745605,0.5798410177230835,0.1310099959373474
1711795441086110500,11.1501103515625,9.789623260498047,0.5618910193443298,0.1339530050754547
1711795441095760000,11.159759765625,9.787862777709961,0.577485978603363,0.1860869973897934
1711795441105409000,11.169408935546874,9.78847885131836,0.5631250143051147,0.19737599790096283
1711795441115058200,11.17905810546875,9.786240577697754,0.5893610119819641,0.22921699285507202
1711795441124707300,11.188707275390625,9.786766052246094,0.5791159868240356,0.23284199833869934
1711795441134356500,11.1983564453125,9.784501075744629,0.6096699833869934,0.2494339942932129
1711795441144005600,11.208005615234375,9.78467845916748,0.6083670258522034,0.2456659972667694
1711795441153654800,11.21765478515625,9.781702041625977,0.6472659707069397,0.2640730142593384
1711795441163304200,11.22730419921875,9.781074523925781,0.6570889949798584,0.2630229890346527
1711795441172953300,11.236953369140625,9.776769638061523,0.713109016418457,0.27683600783348083
1711795441182602500,11.2466025390625,9.775550842285156,0.7302119731903076,0.27527499198913574
1711795441192251600,11.256251708984376,9.769713401794434,0.8070859909057617,0.26775598526000977
1711795441201900800,11.26590087890625,9.76887035369873,0.8191319704055786,0.2618579864501953
1711795441211550000,11.275550048828125,9.763189315795898,0.8820880055427551,0.2691429853439331
1711795441221199000,11.28519921875,9.763550758361816,0.8791149854660034,0.26572999358177185
1711795441230848500,11.2948486328125,9.760427474975586,0.9098929762840271,0.2766849994659424
1711795441240497700,11.30449755859375,9.761468887329102,0.8985919952392578,0.2768779993057251
1711795441250146800,11.314146728515626,9.759605407714844,0.9178760051727295,0.2792769968509674
1711795441259796000,11.3237958984375,9.760172843933105,0.9122650027275085,0.27784299850463867
1711795441269445400,11.3334453125,9.758079528808594,0.9351069927215576,0.2753959894180298
1711795441279094500,11.343094482421876,9.757949829101562,0.9363960027694702,0.2756139934062958
1711795441288743700,11.35274365234375,9.755866050720215,0.9547569751739502,0.28614500164985657
1711795441298392800,11.362392822265624,9.755934715270996,0.9524580240249634,0.2914719879627228
1711795441308042000,11.3720419921875,9.756479263305664,0.9350399971008301,0.32742199301719666
1711795441317691100,11.381691162109375,9.7566499710083,0.9305679798126221,0.3349609971046448
1711795441327340300,11.39134033203125,9.75671100616455,0.9279299974441528,0.34047600626945496
1711795441336989400,11.400989501953125,9.755475044250488,0.9405760169029236,0.341185986995697
1711795441346638600,11.410638671875,9.75223159790039,0.9777219891548157,0.32927900552749634
1711795441356287700,11.420287841796876,9.749486923217773,1.006611943244934,0.3234519958496094
1711795441365937000,11.42993701171875,9.74536418914795,1.0480250120162964,0.3160809874534607
1711795441375586300,11.43958642578125,9.742868423461914,1.0707470178604126,0.3168469965457916
1711795441385235500,11.4492353515625,9.740338325500488,1.096053957939148,0.30798500776290894
1711795441394884600,11.458884521484375,9.739568710327148,1.1001479625701904,0.3176119923591614
1711795441404533800,11.46853369140625,9.74031925201416,1.0998549461364746,0.29475000500679016
1711795441414183000,11.478182861328126,9.74118709564209,1.093032956123352,0.2914609909057617
1711795441423832000,11.48783203125,9.744014739990234,1.0796769857406616,0.24260899424552917
1711795441433481200,11.497481201171874,9.744855880737305,1.0779169797897339,0.2151080071926117
1711795441443130400,11.50713037109375,9.746313095092773,1.0741790533065796,0.16097599267959595
1711795441452779800,11.51677978515625,9.745819091796875,1.08234703540802,0.13385599851608276
1711795441462428700,11.5264287109375,9.74706745147705,1.0763909816741943,0.08020400255918503
1711795441472078300,11.536078369140625,9.745895385742188,1.087712049484253,0.06922599673271179
1711795441481727200,11.545727294921875,9.746493339538574,1.084272027015686,0.024546999484300613
1711795441491376400,11.55537646484375,9.744542121887207,1.1016440391540527,0.025781000033020973
1711795441501025500,11.565025634765625,9.743146896362305,1.1139689683914185,-0.02342900075018406
1711795441510674700,11.5746748046875,9.740548133850098,1.136476993560791,-0.023086000233888626
1711795441520324000,11.584323974609376,9.737631797790527,1.1587680578231812,-0.0785209983587265
1711795441529973000,11.593972900390625,9.73470687866211,1.1828819513320923,-0.08157400041818619
1711795441539622400,11.603622314453125,9.731378555297852,1.206568956375122,-0.12176500260829926
1711795441549271600,11.613271484375,9.728510856628418,1.2292490005493164,-0.12410499900579453
1711795441558920700,11.622920654296875,9.724766731262207,1.2547739744186401,-0.15762099623680115
1711795441568569900,11.63256982421875,9.722429275512695,1.271914005279541,-0.16428500413894653
1711795441578219000,11.642218994140626,9.718062400817871,1.2965179681777954,-0.22066999971866608
1711795441587868400,11.651868408203125,9.716462135314941,1.304610013961792,-0.24235500395298004
1711795441597517600,11.661517578125,9.712936401367188,1.3164639472961426,-0.3101060092449188
1711795441607166700,11.671166748046875,9.712077140808105,1.3150949478149414,-0.34126201272010803
1711795441616815900,11.68081591796875,9.714701652526855,1.2837549448013306,-0.383309006690979
1711795441626465000,11.690465087890624,9.714970588684082,1.2763400077819824,-0.40086600184440613
1711795441636114200,11.7001142578125,9.7181978225708,1.2413150072097778,-0.4314599931240082
1711795441645763300,11.709763427734375,9.718052864074707,1.241199016571045,-0.435030996799469
1711795441655412500,11.71941259765625,9.717673301696777,1.2270749807357788,-0.4811519980430603
1711795441665061600,11.7290615234375,9.71597957611084,1.236117959022522,-0.4920789897441864
1711795441674710800,11.738710693359375,9.712045669555664,1.2386879920959473,-0.5587670207023621
1711795441684360200,11.748360107421876,9.709364891052246,1.2500619888305664,-0.5796170234680176
1711795441694009300,11.75800927734375,9.704684257507324,1.256505012512207,-0.6408380270004272
1711795441703658200,11.767658203125,9.702268600463867,1.2628599405288696,-0.6645010113716125
1711795441713307600,11.7773076171875,9.698765754699707,1.2591869831085205,-0.7202669978141785
1711795441722956800,11.786956787109375,9.697732925415039,1.25723397731781,-0.7373729944229126
1711795441732606000,11.79660595703125,9.694944381713867,1.2533830404281616,-0.7794100046157837
1711795441742255000,11.806255126953126,9.695107460021973,1.2470200061798096,-0.7875400185585022
1711795441751904300,11.815904296875,9.693000793457031,1.241250991821289,-0.8218399882316589
1711795441761553400,11.825553466796874,9.693258285522461,1.2335410118103027,-0.8303580284118652
1711795441771202600,11.83520263671875,9.691007614135742,1.2251149415969849,-0.8682469725608826
1711795441780852000,11.84485205078125,9.690818786621094,1.2179590463638306,-0.8803489804267883
1711795441790501000,11.854501220703124,9.69125747680664,1.2010159492492676,-0.89860999584198
1711795441800150300,11.864150390625,9.691580772399902,1.194229006767273,-0.9041370153427124
1711795441809799700,11.873799560546875,9.692809104919434,1.1781439781188965,-0.9120360016822815
1711795441819448800,11.88344873046875,9.694321632385254,1.170483946800232,-0.9057930111885071
1711795441829098000,11.893097900390625,9.692666053771973,1.1717760562896729,-0.9217079877853394
1711795441838747100,11.9027470703125,9.694583892822266,1.1628220081329346,-0.9128329753875732
1711795441848396000,11.91239599609375,9.691582679748535,1.171151041984558,-0.933830976486206
1711795441858045400,11.92204541015625,9.693891525268555,1.1575980186462402,-0.9267290234565735
1711795441867694600,11.931694580078124,9.694790840148926,1.1502269506454468,-0.9264950156211853
1711795441877343500,11.941343505859376,9.697104454040527,1.1356509923934937,-0.9202520251274109
1711795441886993000,11.950992919921875,9.701189994812012,1.1148639917373657,-0.9024220108985901
1711795441896641800,11.960641845703124,9.703131675720215,1.1056419610977173,-0.8928459882736206
1711795441906291200,11.970291259765625,9.70595932006836,1.0923470258712769,-0.8783659934997559
1711795441915940400,11.9799404296875,9.706931114196777,1.0923099517822266,-0.8676069974899292
1711795441925589500,11.989589599609374,9.706592559814453,1.0991679430007935,-0.8627200126647949
1711795441935239000,11.999239013671875,9.706683158874512,1.1054810285568237,-0.8535799980163574
1711795441944887800,12.0088876953125,9.704691886901855,1.128870964050293,-0.845566987991333
1711795441954537000,12.018536865234376,9.70410442352295,1.1381349563598633,-0.8398810029029846
1711795441964186000,12.02818603515625,9.703015327453613,1.1568609476089478,-0.8267660140991211
1711795441973835500,12.03783544921875,9.703227043151855,1.1616970300674438,-0.8174520134925842
1711795441983484400,12.047484375,9.70425033569336,1.16799795627594,-0.7960529923439026
1711795441993133600,12.057133544921875,9.705363273620605,1.1668750047683716,-0.7840229868888855
1711795442002783000,12.066782958984374,9.705406188964844,1.1697109937667847,-0.7792649865150452
1711795442012432100,12.07643212890625,9.706169128417969,1.1677279472351074,-0.7727029919624329
1711795442022081300,12.086081298828125,9.704812049865723,1.1746649742126465,-0.7792029976844788
1711795442031730200,12.095730224609374,9.704508781433105,1.1769050359725952,-0.7796109914779663
1711795442041379600,12.105379638671875,9.701276779174805,1.1970000267028809,-0.7891770005226135
1711795442051029000,12.115029052734375,9.699837684631348,1.2064080238342285,-0.7925320267677307
1711795442060678000,12.124677978515624,9.696050643920898,1.2363029718399048,-0.7928040027618408
1711795442070327000,12.1343271484375,9.694073677062988,1.2507799863815308,-0.7942759990692139
1711795442079976200,12.14397607421875,9.689766883850098,1.2873530387878418,-0.788375973701477
1711795442089625600,12.15362548828125,9.688312530517578,1.3012959957122803,-0.7833210229873657
1711795442099274800,12.163274658203125,9.684367179870605,1.3334109783172607,-0.778095006942749
1711795442108924000,12.172923828125,9.684066772460938,1.3428490161895752,-0.7654979825019836
1711795442118573000,12.182572998046876,9.679657936096191,1.3771469593048096,-0.760316014289856
1711795442128222200,12.19222216796875,9.679574966430664,1.3837029933929443,-0.7493929862976074
1711795442137871400,12.201871337890625,9.675514221191406,1.4160799980163574,-0.7413089871406555
1711795442147520800,12.211520751953126,9.674907684326172,1.4216829538345337,-0.7384870052337646
1711795442157169700,12.221169677734375,9.671273231506348,1.4482959508895874,-0.7343729734420776
1711795442166818800,12.23081884765625,9.670112609863281,1.4558629989624023,-0.7346919775009155
1711795442176468000,12.240468017578126,9.66403865814209,1.4948110580444336,-0.7364000082015991
1711795442186117000,12.2501171875,9.662288665771484,1.5071510076522827,-0.7342050075531006
1711795442195766300,12.259766357421874,9.653976440429688,1.5562349557876587,-0.7411190271377563
1711795442205415400,12.26941552734375,9.651334762573242,1.5754339694976807,-0.7349410057067871
1711795442215064600,12.279064697265625,9.641636848449707,1.6383830308914185,-0.7245270013809204
1711795442224714000,12.2887138671875,9.638763427734375,1.6605459451675415,-0.7121859788894653
1711795442234363100,12.298363037109375,9.627181053161621,1.7341439723968506,-0.6931849718093872
1711795442244012300,12.30801220703125,9.624879837036133,1.751405954360962,-0.6816499829292297
1711795442253661400,12.317661376953126,9.614507675170898,1.8116350173950195,-0.6705290079116821
1711795442263310600,12.327310546875,9.613553047180176,1.8180789947509766,-0.6667600274085999
1711795442272959700,12.336959716796875,9.6065092086792,1.8574130535125732,-0.6598380208015442
1711795442282609000,12.34660888671875,9.606103897094727,1.8578310012817383,-0.6645370125770569
1711795442292258000,12.356258056640625,9.599794387817383,1.8867729902267456,-0.6741099953651428
1711795442301907500,12.365907470703124,9.59855842590332,1.8883880376815796,-0.687063992023468
1711795442311556600,12.375556640625,9.593667030334473,1.90693199634552,-0.7039570212364197
1711795442321205800,12.385205810546875,9.592862129211426,1.9074369668960571,-0.7134820222854614
1711795442330855000,12.39485498046875,9.591731071472168,1.9110050201416016,-0.7191219925880432
1711795442340504000,12.404504150390625,9.592438697814941,1.9084420204162598,-0.7164869904518127
1711795442350153200,12.4141533203125,9.592114448547363,1.9109690189361572,-0.7140830159187317
1711795442359802600,12.423802734375,9.592269897460938,1.910997986793518,-0.7119110226631165
1711795442369451500,12.433451416015625,9.591227531433105,1.9142099618911743,-0.7173100113868713
1711795442379100700,12.4431005859375,9.588848114013672,1.9258090257644653,-0.7180730104446411
1711795442388749800,12.452749755859376,9.586502075195312,1.938452959060669,-0.7153850197792053
1711795442398399000,12.46239892578125,9.580830574035645,1.9700440168380737,-0.7049819827079773
1711795442408048000,12.472048095703125,9.571922302246094,2.017072916030884,-0.6928939819335938
1711795442417697500,12.481697509765626,9.561652183532715,2.0735960006713867,-0.6673809885978699
