time,seconds_elapsed,z,y,x
1711795430105320700,0.16932080078125,0.02433750033378601,0.04358749836683273,-0.01966249942779541
1711795430114969900,0.178969970703125,0.004812499973922968,0.009349999949336052,0.020624998956918716
1711795430124619300,0.188619384765625,-0.02213750034570694,-0.018699999898672104,0.057337500154972076
1711795430134268200,0.19826806640625,-0.05142499879002571,-0.014987500384449959,0.08415000140666962
1711795430143917600,0.20791748046875,-0.0672374963760376,-0.011412499472498894,0.08786249905824661
1711795430153566500,0.21756640625,-0.07095000147819519,-0.025987500324845314,0.0658624991774559
1711795430163216000,0.2272158203125,-0.06599999964237213,-0.043175000697374344,0.0340999998152256
1711795430172865000,0.236864990234375,-0.054999999701976776,-0.035750001668930054,0.009624999947845936
1711795430182514200,0.24651416015625,-0.04647500067949295,-0.02241249941289425,-0.015949999913573265
1711795430192163600,0.25616357421875,-0.035475000739097595,-0.008937500417232513,-0.040424998849630356
1711795430201812700,0.265812744140625,-0.025712499395012856,-0.01746249943971634,-0.062424998730421066
1711795430211462000,0.2754619140625,-0.02447500079870224,-0.052937500178813934,-0.06971249729394913
1711795430221111000,0.285111083984375,-0.037950001657009125,-0.07617499679327011,-0.05389999970793724
1711795430230760200,0.29476025390625,-0.05142499879002571,-0.07851249724626541,-0.02694999985396862
1711795430240409600,0.30440966796875,-0.05623750016093254,-0.0541750006377697,0.0035749999806284904
1711795430250058800,0.314058837890625,-0.04895000159740448,-0.01993750035762787,0.027912499383091927
1711795430259708000,0.3237080078125,-0.045237500220537186,0.0057749999687075615,0.032862499356269836
1711795430269357000,0.333357177734375,-0.042899999767541885,0.011824999935925007,0.008387500420212746
1711795430279006500,0.34300634765625,-0.045237500220537186,0.026537500321865082,-0.03918749839067459
1711795430288655400,0.3526552734375,-0.04413750022649765,0.01677500084042549,-0.08566249907016754
1711795430298304500,0.362304443359375,-0.04166249930858612,-0.01993750035762787,-0.10642500221729279
1711795430307953700,0.37195361328125,-0.04413750022649765,-0.052937500178813934,-0.0966624990105629
1711795430317602800,0.381602783203125,-0.028187500312924385,-0.057750001549720764,-0.07466249912977219
1711795430327252200,0.391252197265625,-0.00989999994635582,-0.035750001668930054,-0.047712501138448715
1711795430336901400,0.4009013671875,0.0035749999806284904,0.025299999862909317,-0.029424998909235
1711795430346550500,0.410550537109375,0.03904999792575836,0.03382499888539314,-0.015949999913573265
1711795430356200000,0.420199951171875,0.02186249941587448,0.05706249922513962,-0.040424998849630356
1711795430365848800,0.429848876953125,0.0170499999076128,0.03382499888539314,-0.07095000147819519
1711795430375498000,0.439498046875,0.01209999993443489,0.008112499490380287,-0.09542500227689743
1711795430385147400,0.4491474609375,-0.00013749999925494194,-0.003987499978393316,-0.09418749809265137
1711795430394796500,0.458796630859375,-0.00013749999925494194,-0.010174999944865704,-0.06613750010728836
1711795430404445700,0.46844580078125,0.013337500393390656,-0.013749999925494194,-0.025849999859929085
1711795430414094800,0.4780947265625,0.03162499889731407,-0.0016499999910593033,0.010862499475479126
1711795430423744300,0.487744140625,0.04386249929666519,0.020349999889731407,0.032862499356269836
1711795430433393400,0.497393310546875,0.04881250113248825,0.022824998944997787,0.023099999874830246
1711795430443042600,0.50704248046875,0.045099999755620956,0.027775000780820847,-0.012374999932944775
1711795430452691700,0.516691650390625,0.03657500073313713,0.03753750026226044,-0.055137500166893005
1711795430462340900,0.5263408203125,0.02681249938905239,0.03135000169277191,-0.08566249907016754
1711795430471990300,0.535990234375,0.028049999848008156,0.027775000780820847,-0.08071249723434448
1711795430481639400,0.545639404296875,0.028049999848008156,0.022824998944997787,-0.062424998730421066
1711795430491288600,0.55528857421875,0.028049999848008156,0.01677500084042549,-0.035612501204013824
1711795430500937700,0.564937744140625,0.023099999874830246,-0.0016499999910593033,-0.007424999959766865
1711795430510587000,0.5745869140625,0.020624998956918716,-0.030937500298023224,0.01209999993443489
1711795430520235800,0.58423583984375,0.0193875003606081,-0.040699999779462814,0.01691249944269657
1711795430529885200,0.59388525390625,0.02186249941587448,-0.01746249943971634,0.005912499967962503
1711795430539534600,0.60353466796875,0.02186249941587448,0.011824999935925007,-0.025849999859929085
1711795430549183700,0.613183837890625,0.028049999848008156,0.04235000163316727,-0.059950001537799835
1711795430558833200,0.622833251953125,0.037812501192092896,0.07782500237226486,-0.07466249912977219
1711795430568482000,0.63248193359375,0.05128749832510948,0.08153750002384186,-0.06366249918937683
1711795430578131200,0.642131103515625,0.06104999780654907,0.05211250111460686,-0.047712501138448715
1711795430587780400,0.6517802734375,0.062150001525878906,0.0032999999821186066,-0.04413750022649765
1711795430597429800,0.6614296875,0.059812501072883606,-0.043175000697374344,-0.047712501138448715
1711795430607078700,0.67107861328125,0.05362499877810478,-0.07493750005960464,-0.05142499879002571
1711795430616727800,0.680727783203125,0.05238749831914902,-0.06393750011920929,-0.047712501138448715
1711795430626377000,0.690376953125,0.04881250113248825,-0.01993750035762787,-0.03189999982714653
1711795430636026400,0.7000263671875,0.04633750021457672,0.0057749999687075615,-0.01718750037252903
1711795430645675500,0.709675537109375,0.04386249929666519,-0.01746249943971634,-0.013612499460577965
1711795430655324700,0.71932470703125,0.045099999755620956,-0.07369999587535858,-0.029424998909235
1711795430664973800,0.728973876953125,0.047575000673532486,-0.1200374960899353,-0.0611874982714653
1711795430674623000,0.738623046875,0.05609999969601631,-0.1297999918460846,-0.11013749986886978
1711795430684272000,0.748272216796875,0.062150001525878906,-0.11027500033378601,-0.16499999165534973
1711795430693921300,0.75792138671875,0.07204999774694443,-0.07246249914169312,-0.2102375030517578
1711795430703570400,0.7675703125,0.07686249911785126,-0.010174999944865704,-0.233474999666214
1711795430713219600,0.777219482421875,0.07562500238418579,0.05211250111460686,-0.23100000619888306
1711795430722869000,0.786868896484375,0.07933750003576279,0.06435000151395798,-0.20418749749660492
1711795430732518100,0.79651806640625,0.08304999768733978,0.05101250112056732,-0.15289999544620514
1711795430742167300,0.806167236328125,0.08057499676942825,0.0411125011742115,-0.08689999580383301
1711795430751816400,0.81581640625,0.07081250101327896,0.03753750026226044,-0.023375000804662704
1711795430761465600,0.825465576171875,0.059812501072883606,0.007012499962002039,0.01691249944269657
1711795430771114800,0.83511474609375,0.05128749832510948,-0.028462499380111694,0.023099999874830246
1711795430780764200,0.84476416015625,0.047575000673532486,-0.045512501150369644,0.002337499987334013
1711795430790413300,0.854413330078125,0.037812501192092896,-0.040699999779462814,-0.037950001657009125
1711795430800062700,0.864062744140625,0.02681249938905239,-0.02474999986588955,-0.08937499672174454
1711795430809711900,0.8737119140625,0.028049999848008156,-0.0016499999910593033,-0.1247124969959259
1711795430819361000,0.883361083984375,0.03162499889731407,0.04001250118017197,-0.13571250438690186
1711795430829010200,0.89301025390625,0.032862499356269836,0.0765874981880188,-0.1284250020980835
1711795430838659300,0.902659423828125,0.02928750030696392,0.08153750002384186,-0.10889999568462372
1711795430848308500,0.91230859375,0.035337500274181366,0.05829999968409538,-0.08071249723434448
1711795430857957600,0.92195751953125,0.04386249929666519,0.022824998944997787,-0.04413750022649765
1711795430867607000,0.93160693359375,0.05486249923706055,-0.005224999971687794,-0.002612499985843897
1711795430877256200,0.941256103515625,0.062150001525878906,-0.025987500324845314,0.03162499889731407
1711795430886905300,0.9509052734375,0.0695749968290329,-0.02969999983906746,0.05967500060796738
1711795430896554200,0.96055419921875,0.0695749968290329,-0.01251249946653843,0.07562500238418579
1711795430906203600,0.97020361328125,0.05857500061392784,-0.005224999971687794,0.06338749825954437
1711795430915852800,0.979852783203125,0.045099999755620956,-0.003987499978393316,0.02914999984204769
1711795430925502000,0.989501953125,0.02928750030696392,-0.002749999985098839,-0.029424998909235
1711795430935151000,0.999151123046875,0.0193875003606081,-0.006462499964982271,-0.10518749803304672
1711795430944800500,1.008800537109375,0.013337500393390656,-0.0016499999910593033,-0.17489999532699585
1711795430954449700,1.01844970703125,0.010862499475479126,0.018012499436736107,-0.2102375030517578
1711795430964098800,1.028098876953125,0.010862499475479126,0.04001250118017197,-0.2102375030517578
1711795430973748200,1.037748291015625,0.004812499973922968,0.05829999968409538,-0.17366249859333038
1711795430983397400,1.0473974609375,-0.00494999997317791,0.05829999968409538,-0.10642500221729279
1711795430993046300,1.05704638671875,-0.01347499992698431,0.010587500408291817,-0.030662499368190765
1711795431002695400,1.0666953125,-0.01718750037252903,-0.07493750005960464,0.03162499889731407
1711795431012344800,1.0763447265625,-0.018424998968839645,-0.14822499454021454,0.06091250106692314
1711795431021994000,1.085993896484375,-0.01966249942779541,-0.1835625022649765,0.05486249923706055
1711795431031643100,1.09564306640625,-0.02213750034570694,-0.1592250019311905,0.027912499383091927
1711795431041292300,1.105292236328125,-0.01966249942779541,-0.10298749804496765,-0.008662499487400055
1711795431050941400,1.11494140625,-0.01966249942779541,-0.035750001668930054,-0.04166249930858612
1711795431060590800,1.1245908203125,-0.025712499395012856,0.011824999935925007,-0.06971249729394913
1711795431070239700,1.13423974609375,-0.033137500286102295,0.018012499436736107,-0.09790000319480896
1711795431079889200,1.14388916015625,-0.03918749839067459,-0.007699999958276749,-0.13089999556541443
1711795431089538300,1.153538330078125,-0.04166249930858612,-0.03217500075697899,-0.1639000028371811
1711795431099187500,1.1631875,-0.04413750022649765,-0.03217500075697899,-0.1821874976158142
1711795431108836600,1.172836669921875,-0.04413750022649765,-0.03341250121593475,-0.17971250414848328
1711795431118485800,1.18248583984375,-0.040424998849630356,-0.038224998861551285,-0.14423750340938568
1711795431128135000,1.192135009765625,-0.035475000739097595,-0.03946249932050705,-0.08442500233650208
1711795431137784000,1.2017841796875,-0.037950001657009125,-0.06270000338554382,-0.023375000804662704
1711795431147433500,1.21143359375,-0.04166249930858612,-0.10670000314712524,0.02914999984204769
1711795431157082600,1.22108251953125,-0.037950001657009125,-0.1335124969482422,0.0658624991774559
1711795431166731800,1.230731689453125,-0.029424998909235,-0.1396999955177307,0.07809999585151672
1711795431176380700,1.240380615234375,-0.023237500339746475,-0.13846249878406525,0.07067500054836273
1711795431186029800,1.25002978515625,-0.012374999932944775,-0.13846249878406525,0.045099999755620956
1711795431195679200,1.25967919921875,-0.0013749999925494194,-0.1237500011920929,0.009624999947845936
1711795431205328400,1.269328369140625,0.004812499973922968,-0.09817499667406082,-0.02461249940097332
1711795431214977500,1.2789775390625,0.006049999967217445,-0.08717499673366547,-0.047712501138448715
1711795431224626700,1.288626708984375,0.004812499973922968,-0.06998749822378159,-0.04166249930858612
1711795431234276000,1.298276123046875,-0.0013749999925494194,-0.04675000160932541,-0.011137500405311584
1711795431243925000,1.307925048828125,-0.008662499487400055,-0.04675000160932541,0.03657500073313713
1711795431253574100,1.31757421875,-0.02213750034570694,-0.0541750006377697,0.08415000140666962
1711795431263223600,1.3272236328125,-0.030662499368190765,-0.07617499679327011,0.11838749796152115
1711795431272872700,1.336872802734375,-0.03918749839067459,-0.10422500222921371,0.12319999933242798
1711795431282521900,1.34652197265625,-0.045237500220537186,-0.1335124969482422,0.09886249899864197
1711795431292171000,1.3561708984375,-0.04895000159740448,-0.1555124968290329,0.057337500154972076
1711795431301820400,1.3658203125,-0.054999999701976776,-0.15303750336170197,0.015812499448657036
1711795431311469600,1.375469482421875,-0.06847500056028366,-0.11151249706745148,-0.011137500405311584
1711795431321118700,1.38511865234375,-0.08195000141859055,-0.047987498342990875,-0.01718750037252903
1711795431330768000,1.394767822265625,-0.0966624990105629,-0.007699999958276749,-0.0038499999791383743
1711795431340417000,1.4044169921875,-0.11495000123977661,0.009349999949336052,0.02433750033378601
1711795431350066200,1.414066162109375,-0.1307625025510788,0.009349999949336052,0.05115000158548355
1711795431359715600,1.423715576171875,-0.1405249983072281,-0.012649999931454659,0.06833750009536743
1711795431369364700,1.43336474609375,-0.15523749589920044,-0.04441250115633011,0.07067500054836273
1711795431379014000,1.443013916015625,-0.16376249492168427,-0.060224998742341995,0.05967500060796738
1711795431388663000,1.4526630859375,-0.1662375032901764,-0.06270000338554382,0.04867500066757202
1711795431398312200,1.462312255859375,-0.17118750512599945,-0.047987498342990875,0.04262499883770943
1711795431407961300,1.47196142578125,-0.1722874939441681,-0.030937500298023224,0.05115000158548355
1711795431417610800,1.48161083984375,-0.17118750512599945,-0.02722499892115593,0.07315000146627426
1711795431427260000,1.491260009765625,-0.16747500002384186,-0.03217500075697899,0.10491249710321426
1711795431436908800,1.50090869140625,-0.1662375032901764,-0.06517499685287476,0.14409999549388885
1711795431446558200,1.51055810546875,-0.1564749926328659,-0.113987497985363,0.20019999146461487
1711795431456207600,1.52020751953125,-0.14794999361038208,-0.16046249866485596,0.2699125111103058
1711795431465856800,1.529856689453125,-0.1504250019788742,-0.18975000083446503,0.32725000381469727
1711795431475506000,1.539505859375,-0.16499999165534973,-0.18369999527931213,0.35048750042915344
1711795431485154800,1.54915478515625,-0.18700000643730164,-0.15674999356269836,0.3334375023841858
1711795431494804200,1.55880419921875,-0.19676250219345093,-0.11275000125169754,0.27719998359680176
1711795431504453400,1.568453369140625,-0.20295000076293945,-0.04922499880194664,0.19772499799728394
1711795431514102500,1.5781025390625,-0.2040500044822693,0.025299999862909317,0.12209999561309814
1711795431523751400,1.58775146484375,-0.20295000076293945,0.11082500219345093,0.06710000336170197
1711795431533400800,1.59740087890625,-0.19318750500679016,0.15839999914169312,0.032862499356269836
1711795431543050000,1.607050048828125,-0.17723749577999115,0.15839999914169312,0.015812499448657036
1711795431552699100,1.61669921875,-0.15771250426769257,0.13158750534057617,0.018149999901652336
1711795431562348300,1.626348388671875,-0.1381874978542328,0.08635000139474869,0.032862499356269836
1711795431571997700,1.635997802734375,-0.11742500215768814,0.019112499430775642,0.06833750009536743
1711795431581646800,1.645646728515625,-0.0929500013589859,-0.030937500298023224,0.15015000104904175
1711795431591295700,1.655295654296875,-0.07218749821186066,-0.052937500178813934,0.26372501254081726
1711795431600945200,1.664945068359375,-0.052662499248981476,-0.06270000338554382,0.37248748540878296
1711795431610594300,1.67459423828125,-0.037950001657009125,-0.0882750004529953,0.43353748321533203
1711795431620243500,1.684243408203125,-0.02213750034570694,-0.13846249878406525,0.43601250648498535
1711795431629892600,1.693892578125,-0.007424999959766865,-0.17503750324249268,0.40053749084472656
1711795431639542000,1.7035419921875,0.014574999921023846,-0.1909874975681305,0.3529624938964844
1711795431649191200,1.713191162109375,0.03162499889731407,-0.1775124967098236,0.3139125108718872
1711795431658840000,1.722840087890625,0.047575000673532486,-0.1592250019311905,0.2919124960899353
1711795431668489700,1.73248974609375,0.057337500154972076,-0.13722500205039978,0.297962486743927
1711795431678139000,1.742138916015625,0.05609999969601631,-0.11646249890327454,0.32491248846054077
1711795431687787800,1.751787841796875,0.04881250113248825,-0.08717499673366547,0.3419624865055084
1711795431697437200,1.761437255859375,0.032862499356269836,-0.06146249920129776,0.3394874930381775
1711795431707086300,1.77108642578125,0.009624999947845936,-0.03341250121593475,0.30896249413490295
1711795431716735500,1.780735595703125,-0.00989999994635582,-0.005224999971687794,0.2527250051498413
1711795431726384600,1.790384521484375,-0.02694999985396862,0.05335000157356262,0.18191249668598175
1711795431736033800,1.80003369140625,-0.047712501138448715,0.13282500207424164,0.11467500030994415
1711795431745683000,1.809682861328125,-0.059950001537799835,0.21216249465942383,0.05362499877810478
1711795431755332000,1.81933203125,-0.07095000147819519,0.2574000060558319,-0.006187499966472387
1711795431764981200,1.828981201171875,-0.09171249717473984,0.2623499929904938,-0.057612501084804535
1711795431774630700,1.838630615234375,-0.12223749607801437,0.24268749356269836,-0.08318749815225601
1711795431784279800,1.84827978515625,-0.1504250019788742,0.22082500159740448,-0.08195000141859055
1711795431793928700,1.8579287109375,-0.17352500557899475,0.19016249477863312,-0.0648999959230423
1711795431803578000,1.867578125,-0.17971250414848328,0.15606249868869781,-0.05142499879002571
1711795431813227300,1.877227294921875,-0.17723749577999115,0.15606249868869781,-0.047712501138448715
1711795431822876400,1.88687646484375,-0.17118750512599945,0.18039999902248383,-0.057612501084804535
1711795431832525600,1.896525634765625,-0.14918750524520874,0.19634999334812164,-0.08195000141859055
1711795431842174700,1.9061748046875,-0.12099999934434891,0.1999250054359436,-0.12113749980926514
1711795431851824000,1.91582421875,-0.09047500044107437,0.20487499237060547,-0.15523749589920044
1711795431861473000,1.92547314453125,-0.054999999701976776,0.19634999334812164,-0.1882375031709671
1711795431871122200,1.9351220703125,-0.023237500339746475,0.16706250607967377,-0.21876250207424164
1711795431880771600,1.944771484375,-0.0037124999798834324,0.1083500012755394,-0.2517625093460083
1711795431890420700,1.954420654296875,0.010862499475479126,0.0411125011742115,-0.2689499855041504
1711795431900070000,1.96406982421875,0.023099999874830246,0.0057749999687075615,-0.2652375102043152
1711795431909719000,1.973718994140625,0.02928750030696392,-0.01746249943971634,-0.24199999868869781
1711795431919368400,1.983368408203125,0.032862499356269836,-0.04441250115633011,-0.20899999141693115
1711795431929017600,1.993017578125,0.04262499883770943,-0.056512501090765,-0.16266250610351562
1711795431938666500,2.00266650390625,0.05004999786615372,-0.05898749828338623,-0.11247500032186508
1711795431948316000,2.01231591796875,0.05857500061392784,-0.06998749822378159,-0.06971249729394913
1711795431957965000,2.021965087890625,0.07204999774694443,-0.09817499667406082,-0.042899999767541885
1711795431967614200,2.0316142578125,0.08181250095367432,-0.13474999368190765,-0.03671250119805336
1711795431977263400,2.041263427734375,0.08415000140666962,-0.142037495970726,-0.057612501084804535
1711795431986912500,2.05091259765625,0.07686249911785126,-0.12498749792575836,-0.09542500227689743
1711795431996561700,2.060561767578125,0.059812501072883606,-0.10051249712705612,-0.14300000667572021
1711795432006211000,2.070211181640625,0.03657500073313713,-0.082225002348423,-0.19071249663829803
1711795432015860000,2.07985986328125,0.018287500366568565,-0.05169999971985817,-0.22123749554157257
1711795432025509400,2.08950927734375,0.0010999999940395355,0.0032999999821186066,-0.23223750293254852
1711795432035158500,2.099158447265625,-0.01347499992698431,0.05211250111460686,-0.2237125039100647
1711795432044807700,2.1088076171875,-0.023237500339746475,0.07411249727010727,-0.20542499423027039
1711795432054457000,2.11845703125,-0.02447500079870224,0.08030000329017639,-0.17489999532699585
1711795432064106000,2.12810595703125,-0.020899999886751175,0.0826374962925911,-0.14190000295639038
1711795432073755100,2.137755126953125,-0.007424999959766865,0.08153750002384186,-0.11247500032186508
1711795432083404500,2.147404541015625,0.015812499448657036,0.04358749836683273,-0.09047500044107437
1711795432093053700,2.1570537109375,0.03657500073313713,0.020349999889731407,-0.07947500050067902
1711795432102702800,2.166702880859375,0.04881250113248825,0.03382499888539314,-0.08195000141859055
1711795432112352000,2.17635205078125,0.06104999780654907,0.05706249922513962,-0.10395000129938126
1711795432122001400,2.18600146484375,0.07809999585151672,0.0728750005364418,-0.12966249883174896
1711795432131650300,2.195650390625,0.08786249905824661,0.08882500231266022,-0.1504250019788742
1711795432141299500,2.205299560546875,0.09033749997615814,0.09858749806880951,-0.15895000100135803
1711795432150948900,2.214948974609375,0.09391249716281891,0.09735000133514404,-0.15289999544620514
1711795432160598000,2.224597900390625,0.09515000134706497,0.07411249727010727,-0.14300000667572021
1711795432170247200,2.2342470703125,0.09391249716281891,0.015537500381469727,-0.1284250020980835
1711795432179896300,2.243896240234375,0.09886249899864197,-0.047987498342990875,-0.11371249705553055
1711795432189545700,2.253545654296875,0.1073874980211258,-0.08717499673366547,-0.09171249717473984
1711795432199195000,2.26319482421875,0.11481250077486038,-0.10051249712705612,-0.07218749821186066
1711795432208844000,2.272843994140625,0.12581250071525574,-0.08717499673366547,-0.0611874982714653
1711795432218493400,2.282493408203125,0.1391499936580658,-0.06270000338554382,-0.059950001537799835
1711795432228142300,2.292142333984375,0.14533749222755432,-0.04193750023841858,-0.042899999767541885
1711795432237791500,2.30179150390625,0.14657500386238098,-0.030937500298023224,-0.020899999886751175
1711795432247440600,2.311440673828125,0.15633749961853027,-0.04441250115633011,-0.002612499985843897
1711795432257089800,2.32108984375,0.15633749961853027,-0.07246249914169312,0.002337499987334013
1711795432266739000,2.330739013671875,0.15138749778270721,-0.09446249902248383,-0.00494999997317791
1711795432276388400,2.340388427734375,0.15386250615119934,-0.11275000125169754,-0.02213750034570694
1711795432286037200,2.350037353515625,0.16238750517368317,-0.11646249890327454,-0.03918749839067459
1711795432295686700,2.359686767578125,0.16967499256134033,-0.09817499667406082,-0.04895000159740448
1711795432305335800,2.369335693359375,0.17586250603199005,-0.07975000143051147,-0.045375000685453415
1711795432314985000,2.37898486328125,0.18438750505447388,-0.06270000338554382,-0.025849999859929085
1711795432324634000,2.388634033203125,0.1929125040769577,-0.045512501150369644,0.009624999947845936
1711795432334283500,2.398283447265625,0.1929125040769577,-0.05898749828338623,0.05238749831914902
1711795432343932400,2.407932373046875,0.19538749754428864,-0.10175000131130219,0.08662500232458115
1711795432353581600,2.41758154296875,0.19415000081062317,-0.13722500205039978,0.11838749796152115
1711795432363230700,2.427230712890625,0.19415000081062317,-0.16403749585151672,0.14767499268054962
1711795432372880000,2.4368798828125,0.1966249942779541,-0.16898749768733978,0.17943750321865082
1711795432382529300,2.446529296875,0.202674999833107,-0.13598750531673431,0.21367499232292175
1711795432392178400,2.456178466796875,0.20514999330043793,-0.08470000326633453,0.24172499775886536
1711795432401827600,2.46582763671875,0.20514999330043793,-0.028462499380111694,0.2576749920845032
1711795432411476700,2.475476806640625,0.20514999330043793,0.018012499436736107,0.2699125111103058
1711795432421126000,2.4851259765625,0.20391249656677246,0.03506249934434891,0.27348750829696655
1711795432430775000,2.494775146484375,0.20143750309944153,0.04853750020265579,0.2857249975204468
1711795432440424400,2.504424560546875,0.19538749754428864,0.08387500047683716,0.3162499964237213
1711795432450073600,2.514073486328125,0.18438750505447388,0.1023000031709671,0.3529624938964844
1711795432459722800,2.52372265625,0.18191249668598175,0.09363749623298645,0.381012499332428
1711795432469372200,2.5333720703125,0.18562500178813934,0.0668250024318695,0.3797749876976013
1711795432479021300,2.543021240234375,0.19415000081062317,0.0387750007212162,0.35048750042915344
1711795432488670200,2.552670166015625,0.19538749754428864,0.024062499403953552,0.2881999909877777
1711795432498319600,2.562319580078125,0.19043749570846558,0.024062499403953552,0.1989624947309494
1711795432507968800,2.57196875,0.17943750321865082,0.022824998944997787,0.10009999573230743
1711795432517618000,2.581617919921875,0.15757499635219574,0.03135000169277191,0.013337500393390656
1711795432527267000,2.59126708984375,0.13433749973773956,0.03135000169277191,-0.037950001657009125
1711795432536916500,2.60091650390625,0.11233749985694885,0.05706249922513962,-0.04895000159740448
1711795432546565400,2.6105654296875,0.09281250089406967,0.08153750002384186,-0.03189999982714653
1711795432556214500,2.620214599609375,0.06833750009536743,0.08030000329017639,-0.006187499966472387
1711795432565864000,2.629864013671875,0.032862499356269836,0.06806249916553497,0.023099999874830246
1711795432575513000,2.63951318359375,-0.00989999994635582,0.04358749836683273,0.05238749831914902
1711795432585162200,2.649162353515625,-0.04895000159740448,-0.002749999985098839,0.0695749968290329
1711795432594811400,2.658811279296875,-0.08689999580383301,-0.06270000338554382,0.08415000140666962
1711795432604460800,2.668460693359375,-0.12099999934434891,-0.09817499667406082,0.09033749997615814
1711795432614110000,2.67810986328125,-0.14176249504089355,-0.11893749982118607,0.09033749997615814
1711795432623758800,2.6877587890625,-0.14794999361038208,-0.1200374960899353,0.09267500042915344
1711795432633408300,2.697408203125,-0.14423750340938568,-0.07369999587535858,0.09391249716281891
1711795432643057400,2.707057373046875,-0.13199999928474426,-0.011412499472498894,0.10009999573230743
1711795432652706600,2.71670654296875,-0.11247500032186508,0.0705375000834465,0.10615000128746033
1711795432662355700,2.726355712890625,-0.09047500044107437,0.1363999992609024,0.10986249893903732
1711795432672004900,2.7360048828125,-0.06599999964237213,0.1621125042438507,0.10986249893903732
1711795432681654300,2.745654296875,-0.03918749839067459,0.14258749783039093,0.10986249893903732
1711795432691303400,2.755303466796875,-0.008662499487400055,0.09858749806880951,0.10243749618530273
1711795432700952800,2.764952880859375,0.030387500301003456,0.06311249732971191,0.08786249905824661
1711795432710602000,2.77460205078125,0.0658624991774559,0.04358749836683273,0.07067500054836273
1711795432720251000,2.7842509765625,0.08786249905824661,0.027775000780820847,0.040150001645088196
1711795432729900300,2.793900390625,0.09638749808073044,0.008112499490380287,0.0010999999940395355
1711795432739549400,2.803549560546875,0.09515000134706497,-0.016224998980760574,-0.03918749839067459
1711795432749198600,2.813198486328125,0.08786249905824661,-0.04922499880194664,-0.08195000141859055
1711795432758847700,2.82284765625,0.06833750009536743,-0.10793749988079071,-0.1247124969959259
1711795432768497200,2.8324970703125,0.04262499883770943,-0.16169999539852142,-0.15289999544620514
1711795432778146000,2.84214599609375,0.023099999874830246,-0.20074999332427979,-0.17723749577999115
1711795432787795200,2.851795166015625,0.0085249999538064,-0.2055625021457672,-0.19923749566078186
1711795432797444600,2.861444580078125,-0.007424999959766865,-0.16046249866485596,-0.21147499978542328
1711795432807093800,2.87109375,-0.023237500339746475,-0.10298749804496765,-0.21271249651908875
1711795432816743000,2.880742919921875,-0.03671250119805336,-0.06875000149011612,-0.20418749749660492
1711795432826392000,2.89039208984375,-0.047712501138448715,-0.056512501090765,-0.18700000643730164
1711795432836041200,2.900041259765625,-0.06366249918937683,-0.07851249724626541,-0.16871249675750732
1711795432845690400,2.9096904296875,-0.08071249723434448,-0.11769999563694,-0.1467124968767166
1711795432855339500,2.919339599609375,-0.09171249717473984,-0.16046249866485596,-0.12594999372959137
1711795432864988700,2.92898876953125,-0.0929500013589859,-0.1909874975681305,-0.10037499666213989
1711795432874637800,2.938637939453125,-0.08923749625682831,-0.18851250410079956,-0.07590000331401825
1711795432884287000,2.948286865234375,-0.08071249723434448,-0.16046249866485596,-0.055137500166893005
1711795432893936000,2.95793603515625,-0.06847500056028366,-0.10917499661445618,-0.042899999767541885
1711795432903585300,2.967585205078125,-0.0611874982714653,-0.04675000160932541,-0.03918749839067459
1711795432913234700,2.977234619140625,-0.06366249918937683,-0.007699999958276749,-0.045375000685453415
1711795432922883800,2.9868837890625,-0.07095000147819519,-0.008937500417232513,-0.05871250107884407
1711795432932533200,2.996533203125,-0.07947500050067902,-0.021175000816583633,-0.07466249912977219
1711795432942182400,3.006182373046875,-0.08923749625682831,-0.038224998861551285,-0.08937499672174454
1711795432951831600,3.01583154296875,-0.09542500227689743,-0.057750001549720764,-0.11247500032186508
1711795432961480700,3.025480712890625,-0.09418749809265137,-0.06751249730587006,-0.14066250622272491
1711795432971129600,3.035129638671875,-0.08676250278949738,-0.07369999587535858,-0.1662375032901764
1711795432980779000,3.044779052734375,-0.07466249912977219,-0.07493750005960464,-0.18342499434947968
1711795432990428200,3.05442822265625,-0.059950001537799835,-0.07975000143051147,-0.1919499933719635
1711795433000077300,3.064077392578125,-0.04647500067949295,-0.0882750004529953,-0.1882375031709671
1711795433009726700,3.073726806640625,-0.03918749839067459,-0.0882750004529953,-0.1601874977350235
1711795433019375900,3.0833759765625,-0.03671250119805336,-0.0919874981045723,-0.11866249889135361
1711795433029025000,3.09302490234375,-0.040424998849630356,-0.09927500039339066,-0.06971249729394913
1711795433038674200,3.102674072265625,-0.04647500067949295,-0.10917499661445618,-0.033137500286102295
1711795433048323300,3.1123232421875,-0.057475000619888306,-0.12127500027418137,-0.023375000804662704
1711795433057972500,3.121972412109375,-0.0648999959230423,-0.11522500216960907,-0.03437500074505806
1711795433067622000,3.131621826171875,-0.0672374963760376,-0.07851249724626541,-0.047712501138448715
1711795433077270800,3.141270751953125,-0.06599999964237213,-0.03698749840259552,-0.05871250107884407
1711795433086920200,3.150920166015625,-0.05871250107884407,-0.014987500384449959,-0.0611874982714653
1711795433096569300,3.1605693359375,-0.057475000619888306,-0.005224999971687794,-0.05142499879002571
1711795433106218500,3.170218505859375,-0.05871250107884407,-0.012649999931454659,-0.030662499368190765
1711795433115868000,3.179867919921875,-0.06599999964237213,-0.04441250115633011,-0.007424999959766865
1711795433125517000,3.18951708984375,-0.06971249729394913,-0.09927500039339066,0.008387500420212746
1711795433135166000,3.199166015625,-0.07466249912977219,-0.13103750348091125,0.0193875003606081
1711795433144815400,3.2088154296875,-0.07699999958276749,-0.12498749792575836,0.020624998956918716
1711795433154464500,3.218464599609375,-0.07823749631643295,-0.10793749988079071,0.01209999993443489
1711795433164113700,3.22811376953125,-0.08071249723434448,-0.07369999587535858,0.0010999999940395355
1711795433173762800,3.2377626953125,-0.08923749625682831,-0.030937500298023224,-0.002612499985843897
1711795433183412000,3.247411865234375,-0.10518749803304672,0.013062499463558197,0.0010999999940395355
1711795433193061400,3.257061279296875,-0.1247124969959259,0.024062499403953552,0.013337500393390656
1711795433202710300,3.266710205078125,-0.14300000667572021,-0.0004124999977648258,0.030387500301003456
1711795433212359700,3.276359619140625,-0.15895000100135803,-0.030937500298023224,0.047575000673532486
1711795433222008800,3.2860087890625,-0.17352500557899475,-0.06393750011920929,0.05609999969601631
1711795433231658000,3.295657958984375,-0.18328750133514404,-0.08951249718666077,0.05486249923706055
1711795433241307100,3.30530712890625,-0.18947499990463257,-0.0882750004529953,0.045099999755620956
1711795433250956500,3.31495654296875,-0.19552500545978546,-0.06393750011920929,0.032862499356269836
1711795433260605700,3.324605712890625,-0.201712504029274,-0.03698749840259552,0.020624998956918716
1711795433270254800,3.3342548828125,-0.20295000076293945,-0.028462499380111694,0.0193875003606081
1711795433279904000,3.343904052734375,-0.19676250219345093,-0.040699999779462814,0.032862499356269836
1711795433289553400,3.353553466796875,-0.1882375031709671,-0.06875000149011612,0.06338749825954437
1711795433299202600,3.36320263671875,-0.1699499934911728,-0.0919874981045723,0.10862500220537186
1711795433308851700,3.372851806640625,-0.1564749926328659,-0.10793749988079071,0.14767499268054962
1711795433318500900,3.3825009765625,-0.15523749589920044,-0.12251249700784683,0.17215000092983246
1711795433328150000,3.39214990234375,-0.15523749589920044,-0.142037495970726,0.16967499256134033
1711795433337799400,3.40179931640625,-0.1467124968767166,-0.14698749780654907,0.1428624987602234
1711795433347448600,3.411448486328125,-0.13199999928474426,-0.12127500027418137,0.10243749618530273
1711795433357097700,3.42109765625,-0.11123749613761902,-0.06751249730587006,0.062150001525878906
1711795433366747000,3.430746826171875,-0.08923749625682831,-0.011412499472498894,0.0340999998152256
1711795433376396000,3.44039599609375,-0.07342500239610672,0.022824998944997787,0.030387500301003456
1711795433386045200,3.450045166015625,-0.047712501138448715,0.05087500065565109,0.05609999969601631
1711795433395694300,3.4596943359375,-0.01347499992698431,0.06187500059604645,0.10491249710321426
1711795433405343500,3.469343505859375,0.02681249938905239,0.05458749830722809,0.16843749582767487
1711795433414993000,3.478992919921875,0.0695749968290329,0.0008249999955296516,0.2283875048160553
1711795433424642000,3.48864208984375,0.11110000312328339,-0.06393750011920929,0.28696250915527344
1711795433434291000,3.498291015625,0.14038750529289246,-0.13227500021457672,0.34677499532699585
1711795433443940400,3.5079404296875,0.13186250627040863,-0.17627499997615814,0.39448750019073486
1711795433453589500,3.517589599609375,0.08415000140666962,-0.20198750495910645,0.4030124843120575
1711795433463238700,3.52723876953125,0.02928750030696392,-0.23622499406337738,0.3590124845504761
1711795433472887800,3.5368876953125,0.0085249999538064,-0.27527499198913574,0.2796750068664551
1711795433482537000,3.546536865234375,0.02928750030696392,-0.2545124888420105,0.19415000081062317
1711795433492186400,3.556186279296875,0.059812501072883606,-0.1274625062942505,0.13667500019073486
1711795433501835500,3.56583544921875,0.08786249905824661,0.0668250024318695,0.10986249893903732
1711795433511484400,3.575484375,0.11591249704360962,0.2733500003814697,0.09638749808073044
1711795433521133800,3.5851337890625,0.1391499936580658,0.4174500107765198,0.09391249716281891
1711795433530783000,3.594782958984375,0.14657500386238098,0.44068750739097595,0.09886249899864197
1711795433540432400,3.604432373046875,0.14038750529289246,0.3478749990463257,0.09267500042915344
1711795433550081500,3.61408154296875,0.12815000116825104,0.19263750314712524,0.06833750009536743
1711795433559730700,3.623730712890625,0.10257499665021896,0.05211250111460686,0.0340999998152256
1711795433569379800,3.6333798828125,0.06710000336170197,-0.002749999985098839,-0.00494999997317791
1711795433579029000,3.643029052734375,0.0340999998152256,0.021587500348687172,-0.03671250119805336
1711795433588678100,3.65267822265625,0.004812499973922968,0.08030000329017639,-0.06737499684095383
1711795433598327300,3.662327392578125,-0.02213750034570694,0.13529999554157257,-0.08937499672174454
1711795433607976400,3.6719765625,-0.04895000159740448,0.15716250240802765,-0.0929500013589859
1711795433617625900,3.6816259765625,-0.06847500056028366,0.1266375035047531,-0.08071249723434448
1711795433627275000,3.69127490234375,-0.07466249912977219,0.0448249988257885,-0.06366249918937683
1711795433636924200,3.700924072265625,-0.07342500239610672,-0.050462499260902405,-0.045375000685453415
1711795433646573300,3.7105732421875,-0.062424998730421066,-0.1237500011920929,-0.025849999859929085
1711795433656222700,3.72022265625,-0.042899999767541885,-0.1652749925851822,-0.006187499966472387
1711795433665872000,3.729871826171875,-0.025712499395012856,-0.16898749768733978,0.010862499475479126
1711795433675521000,3.73952099609375,-0.015949999913573265,-0.1274625062942505,0.030387500301003456
1711795433685170000,3.749169921875,-0.01347499992698431,-0.06998749822378159,0.04386249929666519
1711795433694819300,3.7588193359375,-0.018424998968839645,-0.021175000816583633,0.045099999755620956
1711795433704468500,3.768468505859375,-0.029424998909235,-0.007699999958276749,0.0340999998152256
1711795433714117600,3.77811767578125,-0.045237500220537186,-0.021175000816583633,-0.006187499966472387
1711795433723766800,3.787766845703125,-0.05142499879002571,-0.0541750006377697,-0.06366249918937683
1711795433733416200,3.797416259765625,-0.05389999970793724,-0.07493750005960464,-0.10642500221729279
1711795433743065300,3.8070654296875,-0.05871250107884407,-0.06517499685287476,-0.11990000307559967
1711795433752714500,3.816714599609375,-0.0648999959230423,-0.03698749840259552,-0.10395000129938126
1711795433762363600,3.82636376953125,-0.0672374963760376,-0.007699999958276749,-0.07342500239610672
1711795433772012800,3.8360126953125,-0.059950001537799835,0.018012499436736107,-0.042899999767541885
1711795433781662000,3.845661865234375,-0.04413750022649765,0.05335000157356262,-0.023375000804662704
1711795433791311400,3.855311279296875,-0.030662499368190765,0.09735000133514404,-0.020899999886751175
1711795433800960500,3.86496044921875,-0.01966249942779541,0.1303499937057495,-0.037950001657009125
1711795433810609700,3.874609619140625,-0.012374999932944775,0.1438249945640564,-0.06737499684095383
1711795433820259000,3.884259033203125,-0.0013749999925494194,0.11935000121593475,-0.09418749809265137
1711795433829908200,3.893908203125,0.018287500366568565,0.08387500047683716,-0.11495000123977661
1711795433839557400,3.903557373046875,0.04138749837875366,0.07782500237226486,-0.12223749607801437
1711795433849206500,3.91320654296875,0.05857500061392784,0.08758749812841415,-0.10766249895095825
1711795433858855700,3.922855712890625,0.07204999774694443,0.09487500041723251,-0.08071249723434448
1711795433868504800,3.9325048828125,0.08304999768733978,0.09735000133514404,-0.033137500286102295
1711795433878154000,3.942154052734375,0.09515000134706497,0.1083500012755394,0.010862499475479126
1711795433887803400,3.951803466796875,0.10615000128746033,0.12182500213384628,0.05486249923706055
1711795433897452500,3.96145263671875,0.11591249704360962,0.12058749794960022,0.09143749624490738
1711795433907101700,3.971101806640625,0.13186250627040863,0.09363749623298645,0.11110000312328339
1711795433916750800,3.980750732421875,0.14891250431537628,0.06435000151395798,0.12086249887943268
1711795433926400300,3.990400146484375,0.16843749582767487,0.05087500065565109,0.12209999561309814
1711795433936049200,4.000049072265625,0.18933749198913574,0.05211250111460686,0.11110000312328339
1711795433945698300,4.0096982421875,0.20143750309944153,0.0728750005364418,0.09267500042915344
1711795433955347700,4.01934765625,0.20762500166893005,0.12058749794960022,0.08043749630451202
1711795433964996900,4.028996826171875,0.2063875049352646,0.15716250240802765,0.08167500048875809
1711795433974646000,4.03864599609375,0.20514999330043793,0.15839999914169312,0.09143749624490738
1711795433984295400,4.04829541015625,0.19786250591278076,0.14258749783039093,0.10243749618530273
1711795433993944600,4.057944580078125,0.1868624985218048,0.13529999554157257,0.1073874980211258
1711795434003593700,4.06759375,0.18191249668598175,0.1303499937057495,0.09886249899864197
1711795434013243000,4.077242919921875,0.17833749949932098,0.12540000677108765,0.08167500048875809
1711795434022892300,4.086892333984375,0.17215000092983246,0.1303499937057495,0.057337500154972076
1711795434032541400,4.09654150390625,0.17215000092983246,0.12430000305175781,0.027912499383091927
1711795434042190300,4.1061904296875,0.17943750321865082,0.10711249709129333,-0.007424999959766865
1711795434051839700,4.11583984375,0.18191249668598175,0.09858749806880951,-0.037950001657009125
1711795434061489000,4.125489013671875,0.17833749949932098,0.09363749623298645,-0.05871250107884407
1711795434071138000,4.135137939453125,0.17710000276565552,0.07163749635219574,-0.07342500239610672
1711795434080787500,4.144787353515625,0.17710000276565552,0.0448249988257885,-0.08195000141859055
1711795434090436600,4.1544365234375,0.17215000092983246,0.05706249922513962,-0.08318749815225601
1711795434100085800,4.164085693359375,0.16238750517368317,0.11687500029802322,-0.07095000147819519
1711795434109735000,4.17373486328125,0.15015000104904175,0.1498750001192093,-0.06737499684095383
1711795434119384300,4.18338427734375,0.14533749222755432,0.10587500035762787,-0.11013749986886978
1711795434129033500,4.193033447265625,0.13791249692440033,0.03506249934434891,-0.1821874976158142
1711795434138682400,4.202682373046875,0.13433749973773956,-0.003987499978393316,-0.2639999985694885
1711795434148331500,4.21233154296875,0.12086249887943268,-0.007699999958276749,-0.32752498984336853
1711795434157981000,4.22198095703125,0.10009999573230743,0.0057749999687075615,-0.3544749915599823
1711795434167630000,4.231630126953125,0.07933750003576279,0.01677500084042549,-0.32999998331069946
1711795434177279200,4.241279296875,0.06833750009536743,0.030112499371170998,-0.2529999911785126
1711795434186928400,4.250928466796875,0.062150001525878906,0.05706249922513962,-0.15523749589920044
1711795434196577800,4.260577880859375,0.05486249923706055,0.09253749996423721,-0.050187498331069946
1711795434206227000,4.27022705078125,0.05004999786615372,0.1046374961733818,0.035337500274181366
1711795434215876000,4.2798759765625,0.047575000673532486,0.08882500231266022,0.09033749997615814
1711795434225525200,4.289525146484375,0.045099999755620956,0.0728750005364418,0.11343749612569809
1711795434235174400,4.29917431640625,0.037812501192092896,0.08153750002384186,0.11343749612569809
1711795434244823600,4.308823486328125,0.02928750030696392,0.09129999577999115,0.1073874980211258
1711795434254473000,4.318472900390625,0.02433750033378601,0.0705375000834465,0.10243749618530273
1711795434264122000,4.3281220703125,0.015812499448657036,0.026537500321865082,0.10862500220537186
1711795434273771300,4.337771240234375,0.002337499987334013,-0.011412499472498894,0.1451999992132187
1711795434283420400,4.34742041015625,-0.015949999913573265,-0.040699999779462814,0.202674999833107
1711795434293069600,4.357069580078125,-0.033137500286102295,-0.07617499679327011,0.26124998927116394
1711795434302719000,4.366718994140625,-0.050187498331069946,-0.10546249896287918,0.30524998903274536
1711795434312368000,4.3763681640625,-0.06599999964237213,-0.09927500039339066,0.32848748564720154
1711795434322017000,4.38601708984375,-0.0929500013589859,-0.08098749816417694,0.3102000057697296
1711795434331666400,4.39566650390625,-0.12347500026226044,-0.0859375,0.24296249449253082
1711795434341315800,4.40531591796875,-0.15399999916553497,-0.09927500039339066,0.14038750529289246
1711795434350964700,4.41496484375,-0.17352500557899475,-0.10175000131130219,0.030387500301003456
1711795434360614000,4.42461376953125,-0.18095000088214874,-0.08717499673366547,-0.06971249729394913
1711795434370263300,4.43426318359375,-0.17476250231266022,-0.04675000160932541,-0.14190000295639038
1711795434379912400,4.443912353515625,-0.15771250426769257,0.014299999922513962,-0.18095000088214874
1711795434389561900,4.453561767578125,-0.13571250438690186,0.06929999589920044,-0.18700000643730164
1711795434399211000,4.4632109375,-0.10999999940395355,0.11329999566078186,-0.16142499446868896
1711795434408860200,4.472860107421875,-0.07823749631643295,0.12911249697208405,-0.11123749613761902
1711795434418509000,4.482509033203125,-0.04647500067949295,0.07782500237226486,-0.05389999970793724
1711795434428158500,4.492158447265625,-0.015949999913573265,-0.021175000816583633,0.01691249944269657
1711795434437807600,4.5018076171875,0.004812499973922968,-0.10546249896287918,0.08910000324249268
1711795434447457000,4.51145703125,0.014574999921023846,-0.15674999356269836,0.14409999549388885
1711795434457106200,4.521106201171875,0.015812499448657036,-0.1714625060558319,0.16596250236034393
1711795434466755300,4.53075537109375,0.020624998956918716,-0.15798750519752502,0.15991249680519104
1711795434476404500,4.540404541015625,0.02681249938905239,-0.14451250433921814,0.12815000116825104
1711795434486053600,4.5500537109375,0.03162499889731407,-0.12251249700784683,0.08043749630451202
1711795434495703000,4.559703125,0.028049999848008156,-0.08951249718666077,0.03657500073313713
1711795434505352200,4.569352294921875,0.015812499448657036,-0.07493750005960464,-0.0038499999791383743
1711795434515001000,4.5790009765625,-0.00494999997317791,-0.0882750004529953,-0.04166249930858612
1711795434524650200,4.588650146484375,-0.030662499368190765,-0.11893749982118607,-0.07837499678134918
1711795434534299600,4.598299560546875,-0.05142499879002571,-0.15798750519752502,-0.11990000307559967
1711795434543948800,4.60794873046875,-0.057475000619888306,-0.19580000638961792,-0.17118750512599945
1711795434553598000,4.617597900390625,-0.054999999701976776,-0.21546250581741333,-0.22618749737739563
1711795434563247400,4.627247314453125,-0.05142499879002571,-0.20803749561309814,-0.27994999289512634
1711795434572896500,4.636896484375,-0.04895000159740448,-0.18603749573230743,-0.3227125108242035
1711795434582545700,4.646545654296875,-0.052662499248981476,-0.13722500205039978,-0.34347498416900635
1711795434592194800,4.65619482421875,-0.0672374963760376,-0.07369999587535858,-0.3348124921321869
1711795434601844200,4.66584423828125,-0.08676250278949738,-0.02969999983906746,-0.3067624866962433
1711795434611493400,4.675493408203125,-0.09542500227689743,-0.010174999944865704,-0.26647499203681946
1711795434621142500,4.685142578125,-0.10023749619722366,-0.007699999958276749,-0.21642500162124634
1711795434630791700,4.694791748046875,-0.10147500038146973,-0.02488750033080578,-0.15895000100135803
1711795434640440800,4.70444091796875,-0.0966624990105629,-0.06393750011920929,-0.10271249711513519
1711795434650090000,4.714090087890625,-0.09542500227689743,-0.11893749982118607,-0.045375000685453415
1711795434659739400,4.723739501953125,-0.10023749619722366,-0.16651250422000885,0.01691249944269657
1711795434669388500,4.733388427734375,-0.10271249711513519,-0.20074999332427979,0.07933750003576279
1711795434679037700,4.74303759765625,-0.10876250267028809,-0.2190375030040741,0.13667500019073486
1711795434688686800,4.752686767578125,-0.11976250261068344,-0.22522500157356262,0.17820000648498535
1711795434698336000,4.7623359375,-0.12718750536441803,-0.23375000059604645,0.18314999341964722
1711795434707985400,4.7719853515625,-0.1307625025510788,-0.23746250569820404,0.15386250615119934
1711795434717634600,4.781634521484375,-0.12718750536441803,-0.21779999136924744,0.10491249710321426
1711795434727283700,4.79128369140625,-0.1247124969959259,-0.20198750495910645,0.04386249929666519
1711795434736932900,4.800932861328125,-0.11123749613761902,-0.1775124967098236,-0.012374999932944775
1711795434746582000,4.81058203125,-0.09171249717473984,-0.15427500009536743,-0.050187498331069946
1711795434756231200,4.820231201171875,-0.07590000331401825,-0.1274625062942505,-0.062424998730421066
1711795434765880300,4.82988037109375,-0.07466249912977219,-0.09322500228881836,-0.05142499879002571
1711795434775529700,4.83952978515625,-0.08071249723434448,-0.06393750011920929,-0.03437500074505806
1711795434785179000,4.849178955078125,-0.09418749809265137,-0.07741250097751617,-0.020899999886751175
1711795434794828300,4.858828369140625,-0.11371249705553055,-0.11893749982118607,-0.011137500405311584
1711795434804477400,4.8684775390625,-0.13199999928474426,-0.16403749585151672,-0.00013749999925494194
1711795434814126600,4.878126708984375,-0.1405249983072281,-0.1909874975681305,0.027912499383091927
1711795434823775700,4.887775634765625,-0.14918750524520874,-0.18246249854564667,0.07315000146627426
1711795434833425200,4.897425048828125,-0.15152500569820404,-0.1457500010728836,0.1354375034570694
1711795434843074000,4.907073974609375,-0.15523749589920044,-0.08717499673366547,0.1966249942779541
1711795434852723500,4.916723388671875,-0.16128750145435333,-0.047987498342990875,0.23938749730587006
1711795434862372600,4.92637255859375,-0.1662375032901764,-0.055412501096725464,0.2576749920845032
1711795434872021800,4.936021728515625,-0.16871249675750732,-0.08470000326633453,0.24791249632835388
1711795434881671000,4.9456708984375,-0.1699499934911728,-0.09817499667406082,0.21367499232292175
1711795434891320300,4.9553203125,-0.16871249675750732,-0.08841250091791153,0.1648624986410141
1711795434900969500,4.964969482421875,-0.1625249981880188,-0.055412501096725464,0.11715000122785568
1711795434910618600,4.97461865234375,-0.14547500014305115,-0.011412499472498894,0.08291249722242355
1711795434920267800,4.984267822265625,-0.13323749601840973,0.027775000780820847,0.0658624991774559
1711795434929917200,4.993917236328125,-0.1284250020980835,0.07163749635219574,0.057337500154972076
1711795434939566300,5.00356640625,-0.1247124969959259,0.10711249709129333,0.05967500060796738
1711795434949215500,5.013215576171875,-0.12952500581741333,0.10587500035762787,0.07067500054836273
1711795434958865000,5.022864990234375,-0.1381874978542328,0.0728750005364418,0.08910000324249268
1711795434968513800,5.032513671875,-0.1405249983072281,0.022824998944997787,0.12086249887943268
1711795434978163000,5.042162841796875,-0.13571250438690186,-0.007699999958276749,0.15386250615119934
1711795434987812600,5.0518125,-0.1307625025510788,-0.021175000816583633,0.19043749570846558
1711795434997461500,5.06146142578125,-0.12718750536441803,-0.03341250121593475,0.21738749742507935
1711795435007110700,5.071110595703125,-0.12099999934434891,-0.040699999779462814,0.22714999318122864
1711795435016760000,5.080760009765625,-0.11618749797344208,-0.038224998861551285,0.22220000624656677
1711795435026409000,5.090408935546875,-0.1284250020980835,-0.050462499260902405,0.18438750505447388
1711795435036058400,5.100058349609375,-0.14794999361038208,-0.08951249718666077,0.10243749618530273
1711795435045707300,5.109707275390625,-0.16128750145435333,-0.11275000125169754,0.002337499987334013
1711795435055356700,5.119356689453125,-0.16128750145435333,-0.07369999587535858,-0.0929500013589859
1711795435065005800,5.129005859375,-0.15895000100135803,0.011824999935925007,-0.1601874977350235
1711795435074655000,5.138655029296875,-0.15895000100135803,0.10106249898672104,-0.18947499990463257
1711795435084304100,5.14830419921875,-0.1504250019788742,0.16458749771118164,-0.1821874976158142
1711795435093953500,5.15795361328125,-0.14423750340938568,0.1755875051021576,-0.13695000112056732
1711795435103602700,5.167602783203125,-0.13199999928474426,0.13282500207424164,-0.08689999580383301
1711795435113251800,5.177251953125,-0.12223749607801437,0.0668250024318695,-0.040424998849630356
1711795435122901200,5.1869013671875,-0.11976250261068344,-0.0004124999977648258,-0.002612499985843897
1711795435132550400,5.19655029296875,-0.10999999940395355,-0.04193750023841858,0.030387500301003456
1711795435142199600,5.206199462890625,-0.09542500227689743,-0.03464999794960022,0.0695749968290329
1711795435151848700,5.2158486328125,-0.09047500044107437,0.01677500084042549,0.11591249704360962
1711795435161498000,5.225498046875,-0.10023749619722366,0.07906249910593033,0.1574375033378601
1711795435171147000,5.23514697265625,-0.11618749797344208,0.12306249886751175,0.18067499995231628
1711795435180796200,5.244796142578125,-0.1344749927520752,0.12540000677108765,0.1769624948501587
1711795435190445300,5.2544453125,-0.1405249983072281,0.07906249910593033,0.14643749594688416
1711795435200095000,5.264094970703125,-0.13695000112056732,0.027775000780820847,0.1073874980211258
1711795435209744100,5.273744140625,-0.12952500581741333,0.010587500408291817,0.07933750003576279
1711795435219393300,5.283393310546875,-0.11866249889135361,0.03629999980330467,0.08291249722242355
1711795435229042400,5.29304248046875,-0.10876250267028809,0.10339999943971634,0.12209999561309814
1711795435238691600,5.302691650390625,-0.0989999994635582,0.1779250055551529,0.1868624985218048
1711795435248340700,5.3123408203125,-0.08799999952316284,0.2134000062942505,0.24667499959468842
1711795435257990000,5.321989990234375,-0.0672374963760376,0.1975875049829483,0.2784374952316284
1711795435267639300,5.331639404296875,-0.040424998849630356,0.15111249685287476,0.2686749994754791
1711795435277288400,5.341288330078125,-0.028187500312924385,0.09858749806880951,0.2186249941587448
1711795435286937600,5.3509375,-0.02694999985396862,0.05706249922513962,0.13667500019073486
1711795435296586800,5.360586669921875,-0.03671250119805336,0.03258749842643738,0.03891250118613243
1711795435306236000,5.37023583984375,-0.054999999701976776,0.03753750026226044,-0.03671250119805336
1711795435315885000,5.379885009765625,-0.07590000331401825,0.05582499876618385,-0.07947500050067902
1711795435325534200,5.3895341796875,-0.0966624990105629,0.05706249922513962,-0.08813749998807907
1711795435335183600,5.39918359375,-0.11247500032186508,0.05211250111460686,-0.06737499684095383
1711795435344832800,5.408832763671875,-0.12718750536441803,0.03135000169277191,-0.03671250119805336
1711795435354482000,5.41848193359375,-0.13942499458789825,-0.01993750035762787,-0.01484999991953373
1711795435364131300,5.42813134765625,-0.14300000667572021,-0.09817499667406082,-0.020899999886751175
1711795435373780500,5.437780517578125,-0.1405249983072281,-0.18369999527931213,-0.0648999959230423
1711795435383429600,5.4474296875,-0.1307625025510788,-0.23251250386238098,-0.13695000112056732
1711795435393078800,5.457078857421875,-0.11742500215768814,-0.2447499930858612,-0.2199999988079071
1711795435402728000,5.46672802734375,-0.09776250272989273,-0.21656249463558197,-0.28847500681877136
1711795435412377300,5.47637744140625,-0.06847500056028366,-0.14698749780654907,-0.32752498984336853
1711795435422026500,5.486026611328125,-0.03671250119805336,-0.06393750011920929,-0.32999998331069946
1711795435431675600,5.495675537109375,-0.00494999997317791,0.017875000834465027,-0.2994749844074249
1711795435441325000,5.505324951171875,0.0170499999076128,0.07782500237226486,-0.23718750476837158
1711795435450974200,5.51497412109375,0.0340999998152256,0.1046374961733818,-0.1467124968767166
1711795435460623400,5.524623291015625,0.03904999792575836,0.09006249904632568,-0.03918749839067459
1711795435470272500,5.5342724609375,0.0340999998152256,0.030112499371170998,0.06462500244379044
1711795435479921700,5.543921630859375,0.028049999848008156,-0.06751249730587006,0.1428624987602234
1711795435489570800,5.55357080078125,0.02433750033378601,-0.16046249866485596,0.1891999989748001
1711795435499220200,5.56322021484375,0.028049999848008156,-0.19222499430179596,0.2087250053882599
1711795435508869400,5.572869384765625,0.04028749838471413,-0.1652749925851822,0.19538749754428864
1711795435518518500,5.5825185546875,0.05609999969601631,-0.10175000131130219,0.14767499268054962
1711795435528167700,5.592167724609375,0.06833750009536743,-0.030937500298023224,0.09143749624490738
1711795435537817000,5.601817138671875,0.07809999585151672,0.027775000780820847,0.03657500073313713
1711795435547466200,5.61146630859375,0.08181250095367432,0.05582499876618385,-0.006187499966472387
1711795435557115400,5.621115478515625,0.07686249911785126,0.05706249922513962,-0.03189999982714653
1711795435566764500,5.6307646484375,0.07204999774694443,0.03753750026226044,-0.042899999767541885
1711795435576413700,5.64041357421875,0.07204999774694443,0.019112499430775642,-0.040424998849630356
1711795435586062800,5.650062744140625,0.06833750009536743,0.010587500408291817,-0.02213750034570694
1711795435595712300,5.659712158203125,0.06462500244379044,0.013062499463558197,0.0035749999806284904
1711795435605361400,5.669361328125,0.06338749825954437,0.01677500084042549,0.02186249941587448
1711795435615010600,5.679010498046875,0.07081250101327896,0.021587500348687172,0.023099999874830246
1711795435624659700,5.68865966796875,0.08181250095367432,0.04235000163316727,0.006049999967217445
1711795435634309000,5.69830908203125,0.09157499670982361,0.09129999577999115,-0.018424998968839645
1711795435643958300,5.707958251953125,0.09886249899864197,0.14739999175071716,-0.037950001657009125
1711795435653607400,5.717607421875,0.10986249893903732,0.1938749998807907,-0.05389999970793724
1711795435663256800,5.7272568359375,0.12581250071525574,0.23045000433921814,-0.055137500166893005
1711795435672905700,5.73690576171875,0.13791249692440033,0.24268749356269836,-0.042899999767541885
1711795435682555000,5.746554931640625,0.14891250431537628,0.22811250388622284,-0.023375000804662704
1711795435692204300,5.756204345703125,0.15757499635219574,0.21092499792575836,0.006049999967217445
1711795435701853400,5.765853515625,0.16733749210834503,0.19868749380111694,0.027912499383091927
1711795435711502600,5.775502685546875,0.17710000276565552,0.1755875051021576,0.03891250118613243
1711795435721151700,5.78515185546875,0.1868624985218048,0.15234999358654022,0.03891250118613243
1711795435730801200,5.79480126953125,0.19786250591278076,0.12540000677108765,0.03162499889731407
1711795435740450300,5.8044501953125,0.202674999833107,0.1046374961733818,0.018149999901652336
1711795435750099500,5.814099365234375,0.20886249840259552,0.09611249715089798,-0.002612499985843897
1711795435759748900,5.823748779296875,0.21986250579357147,0.08387500047683716,-0.018424998968839645
1711795435769398000,5.83339794921875,0.2246749997138977,0.07782500237226486,-0.025849999859929085
1711795435779047200,5.843047119140625,0.22343750298023224,0.06929999589920044,-0.02461249940097332
1711795435788696300,5.8526962890625,0.2149125039577484,0.04235000163316727,-0.02213750034570694
1711795435798345500,5.862345458984375,0.20514999330043793,0.002062499988824129,-0.01718750037252903
1711795435807995000,5.871994873046875,0.18809999525547028,-0.030937500298023224,-0.011137500405311584
1711795435817644000,5.88164404296875,0.16967499256134033,-0.052937500178813934,-0.00494999997317791
1711795435827293200,5.891293212890625,0.15633749961853027,-0.0541750006377697,0.009624999947845936
1711795435836942300,5.9009423828125,0.14767499268054962,-0.025987500324845314,0.040150001645088196
1711795435846591500,5.910591552734375,0.1428624987602234,0.017875000834465027,0.08043749630451202
1711795435856241000,5.920240966796875,0.1331000030040741,0.03258749842643738,0.10862500220537186
1711795435865890000,5.92989013671875,0.12333749979734421,0.006874999962747097,0.11233749985694885
1711795435875539200,5.939539306640625,0.11838749796152115,-0.025987500324845314,0.08786249905824661
1711795435885188400,5.949188232421875,0.11591249704360962,-0.012649999931454659,0.045099999755620956
1711795435894837500,5.95883740234375,0.1073874980211258,0.04235000163316727,-0.006187499966472387
1711795435904487000,5.96848681640625,0.0976250022649765,0.10711249709129333,-0.055137500166893005
1711795435914135800,5.9781357421875,0.0976250022649765,0.16692499816417694,-0.07342500239610672
1711795435923785200,5.98778515625,0.10491249710321426,0.1975875049829483,-0.062424998730421066
1711795435933434600,5.9974345703125,0.11110000312328339,0.2096875011920929,-0.03189999982714653
1711795435943083500,6.00708349609375,0.10615000128746033,0.21463750302791595,0.018149999901652336
1711795435952732700,6.016732666015625,0.09886249899864197,0.17311249673366547,0.07562500238418579
1711795435962382000,6.026382080078125,0.09515000134706497,0.10106249898672104,0.1293874979019165
1711795435972031200,6.03603125,0.09281250089406967,0.03753750026226044,0.17820000648498535
1711795435981680400,6.045680419921875,0.09157499670982361,0.020349999889731407,0.21738749742507935
1711795435991329800,6.055329833984375,0.08304999768733978,0.026537500321865082,0.23567499220371246
1711795436000979000,6.06497900390625,0.0658624991774559,0.021587500348687172,0.22343750298023224
1711795436010628000,6.074628173828125,0.05362499877810478,-0.0016499999910593033,0.19772499799728394
1711795436020277200,6.08427734375,0.05128749832510948,-0.02722499892115593,0.1648624986410141
1711795436029926700,6.0939267578125,0.05362499877810478,-0.043175000697374344,0.13062499463558197
1711795436039575800,6.103575927734375,0.05486249923706055,-0.04193750023841858,0.1013374999165535
1711795436049225000,6.113224853515625,0.05609999969601631,-0.011412499472498894,0.08415000140666962
1711795436058874400,6.122874267578125,0.057337500154972076,0.015537500381469727,0.08910000324249268
1711795436068523300,6.132523193359375,0.057337500154972076,0.03629999980330467,0.11110000312328339
1711795436078172400,6.14217236328125,0.05609999969601631,0.019112499430775642,0.14162500202655792
1711795436087821800,6.15182177734375,0.059812501072883606,-0.043175000697374344,0.1648624986410141
1711795436097471200,6.16147119140625,0.057337500154972076,-0.11275000125169754,0.16843749582767487
1711795436107120000,6.1711201171875,0.02928750030696392,-0.15303750336170197,0.1451999992132187
1711795436116769300,6.180769287109375,-0.007424999959766865,-0.12498749792575836,0.10986249893903732
1711795436126418700,6.190418701171875,-0.042899999767541885,-0.09446249902248383,0.06338749825954437
1711795436136067800,6.20006787109375,-0.062424998730421066,-0.06517499685287476,0.0010999999940395355
1711795436145717000,6.209717041015625,-0.054999999701976776,-0.010174999944865704,-0.0611874982714653
1711795436155366100,6.2193662109375,-0.02213750034570694,0.05706249922513962,-0.10395000129938126
1711795436165015600,6.229015625,0.030387500301003456,0.09982500225305557,-0.12718750536441803
1711795436174664700,6.238664794921875,0.0976250022649765,0.12292499840259552,-0.12223749607801437
1711795436184313900,6.24831396484375,0.15757499635219574,0.11687500029802322,-0.09171249717473984
1711795436193963300,6.25796337890625,0.19043749570846558,0.10216250270605087,-0.050187498331069946
1711795436203612400,6.2676123046875,0.20762500166893005,0.08016250282526016,-0.020899999886751175
1711795436213261300,6.27726123046875,0.2124374955892563,0.05939999967813492,-0.01484999991953373
1711795436222910700,6.28691064453125,0.21615000069141388,0.03753750026226044,-0.042899999767541885
1711795436232559900,6.296559814453125,0.2186249941587448,0.020349999889731407,-0.10518749803304672
1711795436242209000,6.306208984375,0.22220000624656677,0.011824999935925007,-0.19676250219345093
1711795436251858200,6.315858154296875,0.21119999885559082,0.004537499975413084,-0.2957625091075897
1711795436261507300,6.32550732421875,0.19043749570846558,0.011824999935925007,-0.38005000352859497
1711795436271156700,6.33515673828125,0.1685750037431717,0.020349999889731407,-0.44481250643730164
1711795436280806000,6.344805908203125,0.14657500386238098,0.017875000834465027,-0.4838624894618988
1711795436290455300,6.354455322265625,0.11838749796152115,0.015537500381469727,-0.491287499666214
1711795436300104400,6.3641044921875,0.09281250089406967,0.011824999935925007,-0.4595249891281128
1711795436309753600,6.373753662109375,0.06710000336170197,-0.0016499999910593033,-0.38499999046325684
1711795436319403000,6.383403076171875,0.04262499883770943,-0.012649999931454659,-0.27871251106262207
1711795436329052200,6.39305224609375,0.02681249938905239,-0.005224999971687794,-0.1601874977350235
1711795436338701300,6.402701416015625,0.023099999874830246,0.022824998944997787,-0.0611874982714653
1711795436348350200,6.41235009765625,0.03162499889731407,0.03753750026226044,0.0010999999940395355
1711795436357999600,6.42199951171875,0.03904999792575836,0.028875000774860382,0.01691249944269657
1711795436367649000,6.43164892578125,0.03657500073313713,0.009349999949336052,-0.00989999994635582
1711795436377298000,6.4412978515625,0.028049999848008156,-0.005224999971687794,-0.0611874982714653
1711795436386947300,6.450947265625,0.01952499896287918,-0.02488750033080578,-0.11247500032186508
1711795436396596500,6.460596435546875,0.013337500393390656,-0.04688749834895134,-0.15523749589920044
1711795436406245600,6.47024560546875,0.0035749999806284904,-0.0541750006377697,-0.17476250231266022
1711795436415895000,6.47989501953125,-0.01223750039935112,-0.03698749840259552,-0.17723749577999115
1711795436425544200,6.489544189453125,-0.03671250119805336,-0.018699999898672104,-0.17242500185966492
1711795436435193300,6.499193359375,-0.0672374963760376,-0.008937500417232513,-0.17118750512599945
1711795436444842500,6.508842529296875,-0.09776250272989273,-0.012649999931454659,-0.1699499934911728
1711795436454491600,6.51849169921875,-0.12594999372959137,-0.047987498342990875,-0.17118750512599945
1711795436464141000,6.52814111328125,-0.1467124968767166,-0.07369999587535858,-0.17366249859333038
1711795436473790200,6.537790283203125,-0.1662375032901764,-0.07369999587535858,-0.17476250231266022
1711795436483439400,6.547439453125,-0.1845249980688095,-0.04922499880194664,-0.1821874976158142
1711795436493088800,6.5570888671875,-0.1942874938249588,-0.02488750033080578,-0.1956624984741211
1711795436502738000,6.566738037109375,-0.2040500044822693,-0.007699999958276749,-0.21147499978542328
1711795436512386800,6.57638671875,-0.20899999141693115,-0.0016499999910593033,-0.22495000064373016
1711795436522036200,6.5860361328125,-0.21876250207424164,0.006874999962747097,-0.23471249639987946
1711795436531685400,6.595685302734375,-0.23223750293254852,0.013062499463558197,-0.23471249639987946
1711795436541334800,6.605334716796875,-0.24681249260902405,0.017875000834465027,-0.2199999988079071
1711795436550984000,6.61498388671875,-0.26276248693466187,0.03629999980330467,-0.18095000088214874
1711795436560633000,6.624633056640625,-0.28228750824928284,0.04963750019669533,-0.12223749607801437
1711795436570282200,6.6342822265625,-0.30057498812675476,0.04358749836683273,-0.06737499684095383
1711795436579931400,6.643931396484375,-0.3115749955177307,0.021587500348687172,-0.018424998968839645
1711795436589580500,6.65358056640625,-0.31776249408721924,-0.008937500417232513,0.01691249944269657
1711795436599230000,6.66322998046875,-0.31652501225471497,-0.03946249932050705,0.0340999998152256
1711795436608879000,6.672879150390625,-0.3128125071525574,-0.060224998742341995,0.03657500073313713
1711795436618528300,6.6825283203125,-0.3115749955177307,-0.06875000149011612,0.02914999984204769
1711795436628177700,6.692177734375,-0.3115749955177307,-0.07246249914169312,0.013337500393390656
1711795436637826800,6.701826904296875,-0.30799999833106995,-0.07493750005960464,-0.006187499966472387
1711795436647476000,6.71147607421875,-0.30057498812675476,-0.052937500178813934,-0.018424998968839645
1711795436657125000,6.721125,-0.28476250171661377,-0.014987500384449959,-0.02461249940097332
1711795436666774300,6.730774169921875,-0.2639999985694885,0.011824999935925007,-0.035612501204013824
1711795436676423400,6.74042333984375,-0.24928750097751617,0.020349999889731407,-0.04413750022649765
1711795436686072800,6.75007275390625,-0.23952500522136688,0.002062499988824129,-0.04895000159740448
1711795436695722000,6.759721923828125,-0.22605000436306,-0.028462499380111694,-0.050187498331069946
1711795436705371100,6.76937109375,-0.2139499932527542,-0.06641250103712082,-0.03437500074505806
1711795436715020300,6.779020263671875,-0.20528750121593475,-0.10793749988079071,0.002337499987334013
1711795436724669700,6.788669677734375,-0.201712504029274,-0.13227500021457672,0.062150001525878906
1711795436734318800,6.79831884765625,-0.20295000076293945,-0.14698749780654907,0.14643749594688416
1711795436743968000,6.807968017578125,-0.20899999141693115,-0.14327499270439148,0.2404875010251999
1711795436753617400,6.817617431640625,-0.22605000436306,-0.13474999368190765,0.3139125108718872
1711795436763266300,6.827266357421875,-0.24681249260902405,-0.13474999368190765,0.3394874930381775
1711795436772915700,6.836915771484375,-0.26881250739097595,-0.14451250433921814,0.306487500667572
1711795436782565000,6.846565185546875,-0.2798124849796295,-0.13846249878406525,0.2283875048160553
1711795436792214000,6.856214111328125,-0.2750000059604645,-0.07617499679327011,0.13420000672340393
1711795436801863200,6.86586328125,-0.2639999985694885,0.021587500348687172,0.047575000673532486
1711795436811512600,6.8755126953125,-0.25052499771118164,0.09735000133514404,-0.020899999886751175
1711795436821161700,6.88516162109375,-0.23828749358654022,0.12787500023841858,-0.05637500062584877
1711795436830811000,6.894810791015625,-0.22495000064373016,0.12787500023841858,-0.05871250107884407
1711795436840460300,6.904460205078125,-0.21876250207424164,0.09735000133514404,-0.042899999767541885
1711795436850109400,6.914109375,-0.22247499227523804,0.03258749842643738,-0.025849999859929085
1711795436859758600,6.923758544921875,-0.2297624945640564,-0.03946249932050705,-0.012374999932944775
1711795436869407700,6.93340771484375,-0.22605000436306,-0.11151249706745148,0.002337499987334013
1711795436879057200,6.94305712890625,-0.20652499794960022,-0.15674999356269836,0.030387500301003456
1711795436888706300,6.952706298828125,-0.18095000088214874,-0.15303750336170197,0.07067500054836273
1711795436898355500,6.96235546875,-0.15523749589920044,-0.12127500027418137,0.11110000312328339
1711795436908004600,6.972004638671875,-0.13323749601840973,-0.06641250103712082,0.1354375034570694
1711795436917654000,6.981654052734375,-0.11123749613761902,-0.018699999898672104,0.1428624987602234
1711795436927303000,6.991302978515625,-0.09047500044107437,0.013062499463558197,0.13667500019073486
1711795436936952000,7.0009521484375,-0.07095000147819519,0.05335000157356262,0.12691250443458557
1711795436946601700,7.010601806640625,-0.059950001537799835,0.08758749812841415,0.12443749606609344
1711795436956250600,7.020250732421875,-0.054999999701976776,0.10711249709129333,0.12815000116825104
1711795436965899800,7.029899658203125,-0.05142499879002571,0.10711249709129333,0.14643749594688416
1711795436975549000,7.039548828125,-0.050187498331069946,0.09363749623298645,0.1746249943971634
1711795436985198300,7.0491982421875,-0.050187498331069946,0.06558749824762344,0.2124374955892563
1711795436994847500,7.058847412109375,-0.04895000159740448,0.021587500348687172,0.24791249632835388
1711795437004496600,7.06849658203125,-0.05389999970793724,-0.013887500390410423,0.28091248869895935
1711795437014146000,7.07814599609375,-0.05871250107884407,-0.02241249941289425,0.3077250123023987
1711795437023795200,7.087795166015625,-0.0648999959230423,-0.0004124999977648258,0.31872498989105225
1711795437033444400,7.0974443359375,-0.06847500056028366,0.025299999862909317,0.29672500491142273
1711795437043093500,7.107093505859375,-0.06971249729394913,0.03987500071525574,0.24543750286102295
1711795437052742700,7.11674267578125,-0.07699999958276749,0.0448249988257885,0.1671999990940094
1711795437062392000,7.12639208984375,-0.08923749625682831,0.04729999974370003,0.0695749968290329
1711795437072041200,7.136041259765625,-0.0966624990105629,0.03506249934434891,-0.030662499368190765
1711795437081690600,7.145690673828125,-0.10271249711513519,0.0411125011742115,-0.11866249889135361
1711795437091339500,7.155339599609375,-0.10999999940395355,0.08139999955892563,-0.1882375031709671
1711795437100988700,7.16498876953125,-0.11371249705553055,0.12787500023841858,-0.23471249639987946
1711795437110638000,7.17463818359375,-0.10999999940395355,0.16335000097751617,-0.25423750281333923
1711795437120287200,7.184287353515625,-0.10023749619722366,0.17311249673366547,-0.25052499771118164
1711795437129936600,7.1939365234375,-0.08318749815225601,0.1498750001192093,-0.23842500150203705
1711795437139585800,7.203585693359375,-0.0648999959230423,0.09982500225305557,-0.23718750476837158
1711795437149235000,7.21323486328125,-0.04895000159740448,0.06187500059604645,-0.2457125037908554
1711795437158884000,7.222884033203125,-0.03423750028014183,0.06806249916553497,-0.2579500079154968
1711795437168533500,7.232533447265625,-0.01966249942779541,0.09735000133514404,-0.2652375102043152
1711795437178182700,7.2421826171875,-0.002474999986588955,0.11935000121593475,-0.2677125036716461
1711795437187831800,7.251831787109375,0.01209999993443489,0.1438249945640564,-0.25052499771118164
1711795437197481200,7.261481201171875,0.018287500366568565,0.15716250240802765,-0.2102375030517578
1711795437207130400,7.27113037109375,0.02433750033378601,0.13763749599456787,-0.1564749926328659
1711795437216779300,7.280779296875,0.032862499356269836,0.1046374961733818,-0.09913749992847443
1711795437226428700,7.2904287109375,0.03904999792575836,0.06558749824762344,-0.04413750022649765
1711795437236077800,7.300077880859375,0.04633750021457672,0.009349999949336052,-0.006187499966472387
1711795437245727000,7.30972705078125,0.05486249923706055,-0.047987498342990875,0.0010999999940395355
1711795437255376400,7.31937646484375,0.06228749826550484,-0.08470000326633453,-0.020899999886751175
1711795437265025300,7.329025390625,0.06462500244379044,-0.08717499673366547,-0.06366249918937683
1711795437274674700,7.3386748046875,0.06710000336170197,-0.055412501096725464,-0.11495000123977661
1711795437284323800,7.34832373046875,0.06462500244379044,0.0057749999687075615,-0.15895000100135803
1711795437293973000,7.357972900390625,0.0658624991774559,0.07782500237226486,-0.18947499990463257
1711795437303622100,7.3676220703125,0.06104999780654907,0.1083500012755394,-0.2102375030517578
1711795437313271300,7.377271240234375,0.05128749832510948,0.09363749623298645,-0.22618749737739563
1711795437322920700,7.386920654296875,0.03904999792575836,0.04853750020265579,-0.2297624945640564
1711795437332569900,7.39656982421875,0.03162499889731407,-0.008937500417232513,-0.22247499227523804
1711795437342219000,7.406218994140625,0.028049999848008156,-0.05664999783039093,-0.2102375030517578
1711795437351868400,7.415868408203125,0.025575000792741776,-0.06875000149011612,-0.18342499434947968
1711795437361517300,7.425517333984375,0.023099999874830246,-0.047987498342990875,-0.14190000295639038
1711795437371166500,7.43516650390625,0.02681249938905239,-0.01993750035762787,-0.0966624990105629
1711795437380816100,7.444816162109375,0.0340999998152256,0.013062499463558197,-0.052662499248981476
1711795437390465000,7.454465087890625,0.04262499883770943,0.03629999980330467,-0.01718750037252903
1711795437400114200,7.4641142578125,0.05238749831914902,0.024062499403953552,0.004812499973922968
1711795437409763800,7.473763916015625,0.059812501072883606,0.015537500381469727,0.02186249941587448
1711795437419413000,7.4834130859375,0.059812501072883606,0.025299999862909317,0.03891250118613243
1711795437429062000,7.493061767578125,0.05857500061392784,0.03135000169277191,0.049912501126527786
1711795437438711600,7.502711669921875,0.06338749825954437,0.028875000774860382,0.05857500061392784
1711795437448360400,7.5123603515625,0.07204999774694443,0.03506249934434891,0.062150001525878906
1711795437458009600,7.522009521484375,0.08181250095367432,0.04358749836683273,0.05857500061392784
1711795437467659000,7.531658935546875,0.08786249905824661,0.05087500065565109,0.057337500154972076
1711795437477308200,7.54130810546875,0.09281250089406967,0.04358749836683273,0.05486249923706055
1711795437486957300,7.550957275390625,0.08910000324249268,0.026537500321865082,0.04867500066757202
1711795437496606700,7.560606689453125,0.07809999585151672,0.010587500408291817,0.04262499883770943
1711795437506256000,7.570255859375,0.06338749825954437,-0.007699999958276749,0.0340999998152256
1711795437515905000,7.579905029296875,0.05486249923706055,-0.014987500384449959,0.030387500301003456
1711795437525554200,7.58955419921875,0.04633750021457672,-0.0004124999977648258,0.035337500274181366
1711795437535203300,7.599203369140625,0.03904999792575836,0.014299999922513962,0.04867500066757202
1711795437544852500,7.6088525390625,0.02681249938905239,0.017875000834465027,0.06462500244379044
1711795437554501600,7.618501708984375,0.013337500393390656,0.006874999962747097,0.08043749630451202
1711795437564151000,7.628151123046875,0.009624999947845936,-0.016224998980760574,0.08910000324249268
1711795437573800200,7.63780029296875,0.01209999993443489,-0.035887498408555984,0.09886249899864197
1711795437583449300,7.647449462890625,0.018287500366568565,-0.03341250121593475,0.11110000312328339
1711795437593098800,7.6570986328125,0.023099999874830246,-0.012649999931454659,0.12319999933242798
1711795437602748000,7.666747802734375,0.01952499896287918,0.006874999962747097,0.12691250443458557
1711795437612397000,7.67639697265625,0.020624998956918716,0.011824999935925007,0.11591249704360962
1711795437622046200,7.686046142578125,0.032862499356269836,0.0057749999687075615,0.08291249722242355
1711795437631695600,7.695695556640625,0.047575000673532486,0.0008249999955296516,0.02681249938905239
1711795437641344800,7.7053447265625,0.05486249923706055,0.017875000834465027,-0.035612501204013824
1711795437650994000,7.714993896484375,0.05362499877810478,0.0448249988257885,-0.07947500050067902
1711795437660643000,7.72464306640625,0.047575000673532486,0.05335000157356262,-0.10023749619722366
1711795437670292200,7.734292236328125,0.04028749838471413,0.03506249934434891,-0.09542500227689743
1711795437679941600,7.743941650390625,0.02928750030696392,0.002062499988824129,-0.06971249729394913
1711795437689590800,7.7535908203125,0.014574999921023846,-0.03464999794960022,-0.033137500286102295
1711795437699240200,7.763240234375,-0.007424999959766865,-0.07246249914169312,-0.002612499985843897
1711795437708889300,7.772889404296875,-0.02694999985396862,-0.11041250079870224,0.010862499475479126
1711795437718538200,7.782538330078125,-0.042899999767541885,-0.14698749780654907,0.008387500420212746
1711795437728187600,7.792187744140625,-0.04413750022649765,-0.16403749585151672,-0.00013749999925494194
1711795437737836800,7.8018369140625,-0.033137500286102295,-0.13722500205039978,0.004812499973922968
1711795437747486000,7.81148583984375,-0.02213750034570694,-0.07741250097751617,0.02914999984204769
1711795437757135400,7.82113525390625,-0.008662499487400055,-0.021175000816583633,0.0719124972820282
1711795437766784500,7.830784423828125,-0.00494999997317791,0.0057749999687075615,0.1331000030040741
1711795437776433700,7.84043359375,-0.00013749999925494194,-0.008937500417232513,0.18438750505447388
1711795437786082800,7.850082763671875,0.010862499475479126,-0.052937500178813934,0.20762500166893005
1711795437795732000,7.85973193359375,0.02433750033378601,-0.09941250085830688,0.19772499799728394
1711795437805381400,7.86938134765625,0.03904999792575836,-0.11151249706745148,0.1611499935388565
1711795437815030300,7.8790302734375,0.05486249923706055,-0.0919874981045723,0.09033749997615814
1711795437824679400,7.888679443359375,0.07686249911785126,-0.06875000149011612,0.014574999921023846
1711795437834328800,7.898328857421875,0.1013374999165535,-0.04441250115633011,-0.05637500062584877
1711795437843978000,7.90797802734375,0.12457499653100967,-0.023649999871850014,-0.10518749803304672
1711795437853627100,7.917627197265625,0.1391499936580658,-0.023649999871850014,-0.1284250020980835
1711795437863276500,7.927276611328125,0.1551000028848648,-0.04441250115633011,-0.12718750536441803
1711795437872925700,7.93692578125,0.16362500190734863,-0.06641250103712082,-0.09047500044107437
1711795437882574800,7.946574951171875,0.170912504196167,-0.07617499679327011,-0.033137500286102295
1711795437892224000,7.95622412109375,0.17833749949932098,-0.08098749816417694,0.03162499889731407
1711795437901873400,7.965873291015625,0.18438750505447388,-0.07369999587535858,0.09033749997615814
1711795437911522600,7.9755224609375,0.19415000081062317,-0.055412501096725464,0.1331000030040741
1711795437921171700,7.985171630859375,0.20391249656677246,-0.05169999971985817,0.15496249496936798
1711795437930820900,7.99482080078125,0.2124374955892563,-0.06764999777078629,0.1451999992132187
1711795437940470300,8.00447021484375,0.21738749742507935,-0.09446249902248383,0.11715000122785568
1711795437950119400,8.014119384765625,0.22714999318122864,-0.10917499661445618,0.09033749997615814
1711795437959768600,8.0237685546875,0.23567499220371246,-0.11041250079870224,0.062150001525878906
1711795437969418000,8.03341796875,0.24310000240802765,-0.09693749994039536,0.04386249929666519
1711795437979067100,8.043067138671875,0.24310000240802765,-0.05898749828338623,0.035337500274181366
1711795437988716300,8.05271630859375,0.2320999950170517,-0.02241249941289425,0.020624998956918716
1711795437998365400,8.062365478515625,0.22110000252723694,-0.012649999931454659,-0.01484999991953373
1711795438008014600,8.0720146484375,0.210099995136261,-0.023649999871850014,-0.0648999959230423
1711795438017664000,8.0816640625,0.1966249942779541,-0.03946249932050705,-0.12594999372959137
1711795438027313200,8.091313232421875,0.17943750321865082,-0.06270000338554382,-0.19676250219345093
1711795438036962300,8.10096240234375,0.16733749210834503,-0.08841250091791153,-0.27018749713897705
1711795438046611500,8.110611572265626,0.1551000028848648,-0.08717499673366547,-0.32752498984336853
1711795438056260600,8.120260498046875,0.14038750529289246,-0.06764999777078629,-0.34347498416900635
1711795438065910000,8.129909912109374,0.12581250071525574,-0.02241249941289425,-0.32147499918937683
1711795438075559200,8.13955908203125,0.11357499659061432,0.024062499403953552,-0.2677125036716461
1711795438085208300,8.149208251953125,0.09157499670982361,0.06063750013709068,-0.18342499434947968
1711795438094857700,8.158857666015624,0.07081250101327896,0.08511249721050262,-0.08813749998807907
1711795438104506600,8.168506591796875,0.05857500061392784,0.0765874981880188,-0.002612499985843897
1711795438114155800,8.17815576171875,0.05362499877810478,0.03258749842643738,0.05486249923706055
1711795438123805200,8.18780517578125,0.05004999786615372,-0.01746249943971634,0.08043749630451202
1711795438133454300,8.197454345703125,0.047575000673532486,-0.047987498342990875,0.07067500054836273
1711795438143103700,8.207103759765625,0.05128749832510948,-0.055412501096725464,0.03657500073313713
1711795438152753000,8.2167529296875,0.057337500154972076,-0.04922499880194664,-0.01484999991953373
1711795438162402000,8.226402099609375,0.06104999780654907,-0.03464999794960022,-0.06737499684095383
1711795438172051200,8.23605126953125,0.06462500244379044,-0.018699999898672104,-0.11123749613761902
1711795438181700400,8.245700439453126,0.07081250101327896,-0.011412499472498894,-0.14423750340938568
1711795438191349800,8.255349853515625,0.07562500238418579,-0.010174999944865704,-0.1662375032901764
1711795438200999000,8.2649990234375,0.07562500238418579,-0.01746249943971634,-0.17599999904632568
1711795438210648000,8.27464794921875,0.07315000146627426,-0.03217500075697899,-0.17366249859333038
1711795438220297500,8.28429736328125,0.06710000336170197,-0.055412501096725464,-0.15895000100135803
1711795438229946600,8.293946533203124,0.057337500154972076,-0.06764999777078629,-0.13695000112056732
1711795438239595800,8.303595703125,0.05004999786615372,-0.07122500240802765,-0.10147500038146973
1711795438249245000,8.313244873046875,0.04028749838471413,-0.08098749816417694,-0.059950001537799835
1711795438258894300,8.322894287109374,0.02433750033378601,-0.09322500228881836,-0.008662499487400055
1711795438268543200,8.332543212890625,0.006049999967217445,-0.09693749994039536,0.037812501192092896
1711795438278192400,8.3421923828125,-0.00989999994635582,-0.09693749994039536,0.07067500054836273
1711795438287841800,8.351841796875,-0.018424998968839645,-0.08717499673366547,0.08043749630451202
1711795438297491200,8.3614912109375,-0.029424998909235,-0.07246249914169312,0.06462500244379044
1711795438307140000,8.37114013671875,-0.04166249930858612,-0.052937500178813934,0.04138749837875366
1711795438316789500,8.38078955078125,-0.052662499248981476,-0.025987500324845314,0.025575000792741776
1711795438326438700,8.390438720703125,-0.06599999964237213,-0.007699999958276749,0.020624998956918716
1711795438336087800,8.400087890625,-0.07342500239610672,-0.011412499472498894,0.027912499383091927
1711795438345737000,8.409737060546876,-0.07823749631643295,-0.025987500324845314,0.047575000673532486
1711795438355386000,8.41938623046875,-0.08318749815225601,-0.047987498342990875,0.0719124972820282
1711795438365035500,8.429035400390624,-0.08195000141859055,-0.06146249920129776,0.0976250022649765
1711795438374684700,8.4386845703125,-0.07699999958276749,-0.06270000338554382,0.11110000312328339
1711795438384333800,8.448333740234375,-0.07823749631643295,-0.06875000149011612,0.10491249710321426
1711795438393983000,8.45798291015625,-0.07699999958276749,-0.08470000326633453,0.08786249905824661
1711795438403632000,8.467632080078126,-0.07590000331401825,-0.0919874981045723,0.06338749825954437
1711795438413281300,8.47728125,-0.07823749631643295,-0.09941250085830688,0.04138749837875366
1711795438422930700,8.4869306640625,-0.08318749815225601,-0.10793749988079071,0.03657500073313713
1711795438432579800,8.496579833984375,-0.08676250278949738,-0.09569999575614929,0.04867500066757202
1711795438442229000,8.50622900390625,-0.09418749809265137,-0.055412501096725464,0.06833750009536743
1711795438451878100,8.515878173828124,-0.10023749619722366,-0.04193750023841858,0.09391249716281891
1711795438461527600,8.525527587890625,-0.10999999940395355,-0.04441250115633011,0.12209999561309814
1711795438471176700,8.5351767578125,-0.11976250261068344,-0.043175000697374344,0.15867500007152557
1711795438480825900,8.544825927734376,-0.12718750536441803,-0.03698749840259552,0.20391249656677246
1711795438490475300,8.554475341796875,-0.13571250438690186,-0.03341250121593475,0.24791249632835388
1711795438500124400,8.56412451171875,-0.1504250019788742,-0.03946249932050705,0.282150000333786
1711795438509773600,8.573773681640626,-0.1722874939441681,-0.06517499685287476,0.282150000333786
1711795438519423000,8.583423095703125,-0.19304999709129333,-0.11151249706745148,0.23938749730587006
1711795438529072000,8.593072021484375,-0.20528750121593475,-0.14822499454021454,0.1648624986410141
1711795438538721000,8.602720947265626,-0.21271249651908875,-0.12251249700784683,0.0695749968290329
1711795438548370400,8.612370361328125,-0.21271249651908875,-0.06146249920129776,-0.030662499368190765
1711795438558019600,8.62201953125,-0.20295000076293945,-0.004124999977648258,-0.12223749607801437
1711795438567669000,8.6316689453125,-0.19071249663829803,0.04606249928474426,-0.19318750500679016
1711795438577318100,8.641318115234375,-0.18328750133514404,0.09239999949932098,-0.22495000064373016
1711795438586967300,8.65096728515625,-0.17847499251365662,0.1143999993801117,-0.21642500162124634
1711795438596616400,8.660616455078125,-0.16499999165534973,0.08635000139474869,-0.18342499434947968
1711795438606265600,8.670265625,-0.14794999361038208,0.03629999980330467,-0.1247124969959259
1711795438615915000,8.6799150390625,-0.12718750536441803,0.009349999949336052,-0.04413750022649765
1711795438625564200,8.689564208984375,-0.10766249895095825,-0.02488750033080578,0.040150001645088196
1711795438635213300,8.69921337890625,-0.09171249717473984,-0.07617499679327011,0.1036750003695488
1711795438644862500,8.708862548828124,-0.07218749821186066,-0.09693749994039536,0.15496249496936798
1711795438654511900,8.718511962890625,-0.057475000619888306,-0.07493750005960464,0.1891999989748001
1711795438664161000,8.7281611328125,-0.04647500067949295,-0.03698749840259552,0.20514999330043793
1711795438673810000,8.737809814453126,-0.03671250119805336,-0.0028874999843537807,0.20996250212192535
1711795438683459300,8.747459228515625,-0.03423750028014183,0.03753750026226044,0.2087250053882599
1711795438693108500,8.7571083984375,-0.04399999976158142,0.05829999968409538,0.20996250212192535
1711795438702757600,8.766757568359376,-0.0611874982714653,0.06187500059604645,0.21367499232292175
1711795438712407000,8.776406982421875,-0.07342500239610672,0.05087500065565109,0.2209624946117401
1711795438722056200,8.78605615234375,-0.08676250278949738,0.03753750026226044,0.2283875048160553
1711795438731705300,8.795705322265626,-0.10766249895095825,0.016637500375509262,0.23319999873638153
1711795438741354500,8.8053544921875,-0.13199999928474426,-0.004124999977648258,0.2283875048160553
1711795438751003600,8.815003662109374,-0.15523749589920044,-0.01746249943971634,0.21119999885559082
1711795438760653000,8.824653076171876,-0.17118750512599945,-0.005224999971687794,0.1891999989748001
1711795438770302200,8.83430224609375,-0.17599999904632568,0.030112499371170998,0.16843749582767487
1711795438779951600,8.84395166015625,-0.17118750512599945,0.0826374962925911,0.15496249496936798
1711795438789600800,8.853600830078125,-0.15771250426769257,0.14011250436306,0.14409999549388885
1711795438799250000,8.86325,-0.14547500014305115,0.18411250412464142,0.1391499936580658
1711795438808899000,8.872899169921874,-0.1344749927520752,0.19263750314712524,0.1428624987602234
1711795438818548200,8.88254833984375,-0.12594999372959137,0.16940000653266907,0.14767499268054962
1711795438828197400,8.892197265625,-0.1247124969959259,0.12911249697208405,0.15496249496936798
1711795438837846800,8.9018466796875,-0.12718750536441803,0.08030000329017639,0.16238750517368317
1711795438847496000,8.911495849609375,-0.1307625025510788,0.05582499876618385,0.16362500190734863
1711795438857145000,8.92114501953125,-0.13571250438690186,0.03753750026226044,0.15015000104904175
1711795438866794200,8.930794189453126,-0.14547500014305115,0.020349999889731407,0.11233749985694885
1711795438876443400,8.940443359375,-0.1527625024318695,-0.006462499964982271,0.05857500061392784
1711795438886092800,8.9500927734375,-0.15399999916553497,-0.028462499380111694,-0.0038499999791383743
1711795438895742000,8.959741943359376,-0.14918750524520874,-0.03217500075697899,-0.07342500239610672
1711795438905391000,8.96939111328125,-0.14300000667572021,-0.02488750033080578,-0.13942499458789825
1711795438915040300,8.979040283203124,-0.13199999928474426,-0.013887500390410423,-0.19442500174045563
1711795438924689700,8.988689697265626,-0.12347500026226044,-0.013887500390410423,-0.23718750476837158
1711795438934338600,8.998338623046875,-0.11495000123977661,-0.025987500324845314,-0.26647499203681946
1711795438943987700,9.00798779296875,-0.10766249895095825,-0.028462499380111694,-0.27252501249313354
1711795438953637400,9.017637451171876,-0.10642500221729279,-0.02722499892115593,-0.2591874897480011
1711795438963286300,9.027286376953125,-0.10147500038146973,-0.02969999983906746,-0.22618749737739563
1711795438972935700,9.036935791015624,-0.08923749625682831,-0.02722499892115593,-0.1821874976158142
1711795438982584800,9.046584716796875,-0.07095000147819519,-0.02488750033080578,-0.13695000112056732
1711795438992234000,9.05623388671875,-0.047712501138448715,-0.016224998980760574,-0.09418749809265137
1711795439001883100,9.065883056640626,-0.02447500079870224,0.0032999999821186066,-0.055137500166893005
1711795439011532300,9.0755322265625,-0.0013749999925494194,0.03258749842643738,-0.029424998909235
1711795439021181700,9.085181640625,0.0170499999076128,0.05829999968409538,-0.01966249942779541
1711795439030830800,9.094830810546876,0.02928750030696392,0.07782500237226486,-0.02461249940097332
1711795439040480000,9.10447998046875,0.04138749837875366,0.09487500041723251,-0.04166249930858612
1711795439050129400,9.11412939453125,0.05128749832510948,0.1120624989271164,-0.06613750010728836
1711795439059778600,9.123778564453126,0.05486249923706055,0.12182500213384628,-0.09418749809265137
1711795439069427700,9.133427734375,0.06228749826550484,0.1266375035047531,-0.11495000123977661
1711795439079077000,9.1430771484375,0.0695749968290329,0.12540000677108765,-0.1344749927520752
1711795439088726300,9.152726318359376,0.08181250095367432,0.1046374961733818,-0.14547500014305115
1711795439098375200,9.162375244140625,0.08538749814033508,0.08758749812841415,-0.14794999361038208
1711795439108024600,9.172024658203124,0.08662500232458115,0.09116250276565552,-0.14066250622272491
1711795439117674000,9.181674072265626,0.08538749814033508,0.09116250276565552,-0.13695000112056732
1711795439127323000,9.191322998046875,0.08415000140666962,0.09006249904632568,-0.14794999361038208
1711795439136972300,9.20097216796875,0.09157499670982361,0.10216250270605087,-0.16142499446868896
1711795439146621400,9.210621337890625,0.10257499665021896,0.12787500023841858,-0.15895000100135803
1711795439156270600,9.2202705078125,0.11233749985694885,0.15111249685287476,-0.14423750340938568
1711795439165919700,9.229919677734374,0.12209999561309814,0.16458749771118164,-0.10889999568462372
1711795439175569200,9.239569091796875,0.1293874979019165,0.15592500567436218,-0.05637500062584877
1711795439185218300,9.24921826171875,0.13557499647140503,0.12911249697208405,0.008387500420212746
1711795439194867500,9.258867431640626,0.14767499268054962,0.10958749800920486,0.07933750003576279
1711795439204516900,9.268516845703125,0.15991249680519104,0.1046374961733818,0.13791249692440033
1711795439214166000,9.278166015625,0.1746249943971634,0.1083500012755394,0.17586250603199005
1711795439223815000,9.28781494140625,0.18809999525547028,0.1143999993801117,0.1891999989748001
1711795439233464300,9.29746435546875,0.1966249942779541,0.10587500035762787,0.17586250603199005
1711795439243113500,9.307113525390625,0.210099995136261,0.08511249721050262,0.1451999992132187
1711795439252762600,9.3167626953125,0.2283875048160553,0.06187500059604645,0.10243749618530273
1711795439262411800,9.326411865234375,0.24543750286102295,0.06558749824762344,0.05115000158548355
1711795439272061200,9.336061279296874,0.2638624906539917,0.1046374961733818,-0.002612499985843897
1711795439281710300,9.34571044921875,0.28462499380111694,0.15839999914169312,-0.04895000159740448
1711795439291359500,9.355359375,0.3041499853134155,0.21834999322891235,-0.07590000331401825
1711795439301008600,9.365008544921874,0.3151499927043915,0.2611125111579895,-0.07837499678134918
1711795439310658000,9.374657958984375,0.31872498989105225,0.26840001344680786,-0.0611874982714653
1711795439320307200,9.38430712890625,0.31638750433921814,0.2574000060558319,-0.023375000804662704
1711795439329956400,9.393956298828124,0.30896249413490295,0.23416249454021454,0.014574999921023846
1711795439339605500,9.40360546875,0.30291250348091125,0.19511249661445618,0.03162499889731407
1711795439349255000,9.4132548828125,0.3016749918460846,0.15716250240802765,0.02186249941587448
1711795439358903800,9.42290380859375,0.30896249413490295,0.1498750001192093,-0.006187499966472387
1711795439368553000,9.432552978515625,0.32120001316070557,0.16568750143051147,-0.04166249930858612
1711795439378202400,9.442202392578125,0.3334375023841858,0.18287499248981476,-0.07218749821186066
1711795439387851800,9.451851806640626,0.3419624865055084,0.1999250054359436,-0.08566249907016754
1711795439397501000,9.4615009765625,0.34814998507499695,0.2073500007390976,-0.08071249723434448
1711795439407150000,9.471150146484375,0.3469125032424927,0.19139999151229858,-0.05871250107884407
1711795439416799200,9.48079931640625,0.3371500074863434,0.16568750143051147,-0.028187500312924385
1711795439426448400,9.490448486328125,0.33219999074935913,0.14011250436306,0.0010999999940395355
1711795439436097500,9.50009765625,0.3273875117301941,0.11316250264644623,0.0193875003606081
1711795439445746700,9.50974658203125,0.32491248846054077,0.09487500041723251,0.02186249941587448
1711795439455396000,9.51939599609375,0.32491248846054077,0.09363749623298645,0.01691249944269657
1711795439465045000,9.529044921875,0.32243749499320984,0.09611249715089798,0.009624999947845936
1711795439474694100,9.538694091796875,0.32491248846054077,0.08030000329017639,0.0035749999806284904
1711795439484343800,9.54834375,0.3199625015258789,0.05582499876618385,0.0010999999940395355
1711795439493992700,9.55799267578125,0.3139125108718872,0.03135000169277191,0.010862499475479126
1711795439503641900,9.567641845703125,0.30896249413490295,-0.0004124999977648258,0.0340999998152256
1711795439513291300,9.577291259765625,0.31267499923706055,-0.03946249932050705,0.07438749819993973
1711795439522940400,9.5869404296875,0.32243749499320984,-0.05898749828338623,0.1293874979019165
1711795439532589600,9.596589599609375,0.33219999074935913,-0.050462499260902405,0.19043749570846558
1711795439542238700,9.60623876953125,0.34443750977516174,-0.011412499472498894,0.2503874897956848
1711795439551888100,9.61588818359375,0.3529624938964844,0.016637500375509262,0.2844874858856201
1711795439561537300,9.625537353515625,0.35667499899864197,-0.0016499999910593033,0.2759625017642975
1711795439571186400,9.6351865234375,0.3676750063896179,-0.05169999971985817,0.2246749997138977
1711795439580835600,9.644835693359376,0.3834874927997589,-0.06764999777078629,0.15496249496936798
1711795439590484700,9.654484619140625,0.39448750019073486,-0.025987500324845314,0.07315000146627426
1711795439600134100,9.664134033203124,0.39448750019073486,0.014299999922513962,-0.006187499966472387
1711795439609783300,9.673783203125,0.3969624936580658,0.024062499403953552,-0.057612501084804535
1711795439619432700,9.6834326171875,0.4104374945163727,0.013062499463558197,-0.06366249918937683
1711795439629081900,9.693081787109374,0.42748749256134033,-0.012649999931454659,-0.025712499395012856
1711795439638730800,9.702730712890625,0.43972501158714294,-0.04675000160932541,0.04867500066757202
1711795439648380000,9.7123798828125,0.43972501158714294,-0.08717499673366547,0.1451999992132187
1711795439658029300,9.722029296875,0.4324375092983246,-0.13722500205039978,0.24172499775886536
1711795439667678500,9.731678466796875,0.4250124990940094,-0.17874999344348907,0.31872498989105225
1711795439677327600,9.74132763671875,0.41167500615119934,-0.23856249451637268,0.3614875078201294
1711795439686977000,9.75097705078125,0.40424999594688416,-0.304562509059906,0.370012491941452
1711795439696626200,9.760626220703125,0.40191251039505005,-0.36451250314712524,0.3419624865055084
1711795439706275300,9.770275390625,0.4104374945163727,-0.44261249899864197,0.2881999909877777
1711795439715924700,9.7799248046875,0.420199990272522,-0.44385001063346863,0.22220000624656677
1711795439725574000,9.789573974609375,0.4250124990940094,-0.36932501196861267,0.15619999170303345
1711795439735222800,9.799222900390625,0.42391249537467957,-0.27403751015663147,0.09515000134706497
1711795439744872200,9.8088720703125,0.420199990272522,-0.17270000278949738,0.057337500154972076
1711795439754521300,9.818521240234375,0.40424999594688416,-0.07617499679327011,0.03657500073313713
1711795439764170500,9.82817041015625,0.3786749839782715,-0.043175000697374344,0.015812499448657036
1711795439773820000,9.83781982421875,0.36024999618530273,-0.06875000149011612,0.004812499973922968
1711795439783469000,9.847468994140625,0.34443750977516174,-0.07369999587535858,0.004812499973922968
1711795439793118200,9.8571181640625,0.3273875117301941,-0.04675000160932541,0.004812499973922968
1711795439802767400,9.866767333984376,0.3151499927043915,-0.01993750035762787,-0.007424999959766865
1711795439812416800,9.876416748046875,0.317487508058548,-0.023649999871850014,-0.037950001657009125
1711795439822065700,9.886065673828124,0.3273875117301941,-0.03217500075697899,-0.08813749998807907
1711795439831715000,9.895715087890625,0.3371500074863434,-0.0004124999977648258,-0.14794999361038208
1711795439841364500,9.905364501953125,0.35420000553131104,0.06311249732971191,-0.19923749566078186
1711795439851013400,9.915013427734374,0.37248748540878296,0.13763749599456787,-0.2274249941110611
1711795439860662500,9.92466259765625,0.3871999979019165,0.1999250054359436,-0.24928750097751617
1711795439870312000,9.93431201171875,0.3969624936580658,0.21834999322891235,-0.27018749713897705
1711795439879961000,9.943961181640624,0.39943748712539673,0.1938749998807907,-0.2932874858379364
1711795439889610200,9.9536103515625,0.38967499136924744,0.16087499260902405,-0.32023748755455017
1711795439899259600,9.963259765625,0.36024999618530273,0.1266375035047531,-0.36176249384880066
1711795439908908800,9.97290869140625,0.3139125108718872,0.08758749812841415,-0.4105750024318695
1711795439918558000,9.982557861328125,0.2626250088214874,0.08139999955892563,-0.4558124840259552
1711795439928206800,9.992206787109374,0.22110000252723694,0.12911249697208405,-0.4815250039100647
1711795439937856300,10.001856201171876,0.18933749198913574,0.1999250054359436,-0.4838624894618988
1711795439947505700,10.011505615234375,0.1611499935388565,0.2586374878883362,-0.47533750534057617
1711795439957154600,10.021154541015624,0.14533749222755432,0.26963749527931213,-0.46681249141693115
1711795439966803700,10.0308037109375,0.13062499463558197,0.2513499855995178,-0.46309998631477356
1711795439976453000,10.040453125,0.12333749979734421,0.2293500006198883,-0.4497624933719635
1711795439986102300,10.050102294921874,0.11357499659061432,0.18287499248981476,-0.4300999939441681
1711795439995751400,10.05975146484375,0.11233749985694885,0.13158750534057617,-0.3922874927520752
1711795440005400600,10.069400634765625,0.11357499659061432,0.07163749635219574,-0.33605000376701355
1711795440015050000,10.079050048828124,0.11110000312328339,0.0057749999687075615,-0.27018749713897705
1711795440024699100,10.08869921875,0.10615000128746033,-0.05169999971985817,-0.20899999141693115
1711795440034348000,10.09834814453125,0.09886249899864197,-0.07851249724626541,-0.1662375032901764
1711795440043997200,10.1079970703125,0.09515000134706497,-0.08470000326633453,-0.14300000667572021
1711795440053646600,10.117646484375,0.08415000140666962,-0.08098749816417694,-0.1321374922990799
1711795440063295700,10.127295654296875,0.07809999585151672,-0.08951249718666077,-0.14918750524520874
1711795440072945000,10.13694482421875,0.07809999585151672,-0.11646249890327454,-0.1882375031709671
1711795440082594000,10.146593994140625,0.07809999585151672,-0.14822499454021454,-0.24695000052452087
1711795440092243500,10.156243408203125,0.08786249905824661,-0.1592250019311905,-0.3030500113964081
1711795440101892600,10.165892578125,0.10615000128746033,-0.13722500205039978,-0.3409999907016754
1711795440111541800,10.175541748046875,0.13062499463558197,-0.10051249712705612,-0.344712495803833
1711795440121191200,10.185191162109374,0.15633749961853027,-0.07493750005960464,-0.305525004863739
1711795440130840300,10.19484033203125,0.18067499995231628,-0.060224998742341995,-0.23100000619888306
1711795440140489500,10.204489501953125,0.20143750309944153,-0.06751249730587006,-0.12347500026226044
1711795440150139000,10.214138916015624,0.20886249840259552,-0.08951249718666077,-0.0038499999791383743
1711795440159788000,10.2237880859375,0.2063875049352646,-0.13598750531673431,0.10009999573230743
1711795440169437200,10.233437255859375,0.20391249656677246,-0.21175000071525574,0.16238750517368317
1711795440179086300,10.24308642578125,0.20762500166893005,-0.28008750081062317,0.19043749570846558
1711795440188735500,10.252735595703125,0.2186249941587448,-0.28503748774528503,0.1891999989748001
1711795440198384600,10.262384521484375,0.23567499220371246,-0.24227499961853027,0.1574375033378601
1711795440208033800,10.27203369140625,0.2564375102519989,-0.19470000267028809,0.09886249899864197
1711795440217683200,10.28168310546875,0.2796750068664551,-0.16898749768733978,0.025575000792741776
1711795440227332000,10.29133203125,0.3114374876022339,-0.13722500205039978,-0.04166249930858612
1711795440236981200,10.300981201171876,0.35791251063346863,-0.06998749822378159,-0.10395000129938126
1711795440246630700,10.310630615234375,0.4092000126838684,-0.0028874999843537807,-0.15771250426769257
1711795440256279800,10.32027978515625,0.47519999742507935,0.04358749836683273,-0.19318750500679016
1711795440265929000,10.329928955078126,0.5570124983787537,0.08635000139474869,-0.20666250586509705
1711795440275578400,10.339578369140625,0.6375874876976013,0.12430000305175781,-0.18700000643730164
1711795440285227500,10.3492275390625,0.7195374965667725,0.14011250436306,-0.13571250438690186
1711795440294876700,10.358876708984376,0.8025875091552734,0.12787500023841858,-0.062424998730421066
1711795440304525800,10.36852587890625,0.8721625208854675,0.05582499876618385,0.03657500073313713
1711795440314175200,10.37817529296875,0.940637469291687,-0.01993750035762787,0.13791249692440033
1711795440323824400,10.387824462890626,1.0139249563217163,-0.06751249730587006,0.24172499775886536
1711795440333473300,10.397473388671875,1.0969749689102173,-0.10175000131130219,0.33219999074935913
1711795440343122400,10.407122314453124,1.1886874437332153,-0.1237500011920929,0.38843750953674316
1711795440352771800,10.416771728515625,1.2839750051498413,-0.1274625062942505,0.428725004196167
1711795440362421000,10.4264208984375,1.3743125200271606,-0.14093749225139618,0.4470124840736389
1711795440372070100,10.436070068359374,1.4573625326156616,-0.1592250019311905,0.44577500224113464
1711795440381719600,10.445719482421875,1.527074933052063,-0.18975000083446503,0.43601250648498535
1711795440391368700,10.45536865234375,1.5820749998092651,-0.21546250581741333,0.40796250104904175
1711795440401017900,10.465017822265626,1.6211249828338623,-0.21175000071525574,0.3651999831199646
1711795440410667000,10.4746669921875,1.656599998474121,-0.11522500216960907,0.3236750066280365
1711795440420316400,10.48431640625,1.6883624792099,0.05706249922513962,0.27114999294281006
1711795440429965600,10.493965576171876,1.7213624715805054,0.24639999866485596,0.21615000069141388
1711795440439614700,10.50361474609375,1.7494125366210938,0.4442625045776367,0.16596250236034393
1711795440449264000,10.51326416015625,1.7836500406265259,0.5713124871253967,0.13667500019073486
1711795440458913000,10.5229130859375,1.8264124393463135,0.631262481212616,0.11467500030994415
1711795440468562200,10.532562255859375,1.8739874362945557,0.6520249843597412,0.11838749796152115
1711795440478211300,10.54221142578125,1.9289875030517578,0.6067875027656555,0.13186250627040863
1711795440487860700,10.55186083984375,1.9742250442504883,0.5237374901771545,0.15496249496936798
1711795440497510000,10.561510009765625,2.0107998847961426,0.46392500400543213,0.1989624947309494
1711795440507159000,10.571158935546874,2.0462749004364014,0.421162486076355,0.2601499855518341
1711795440516808400,10.580808349609375,2.0535624027252197,0.3539249897003174,0.3077250123023987
1711795440526457300,10.590457275390625,2.1135125160217285,0.22192500531673431,0.2404875010251999
1711795440536106500,10.6001064453125,2.1232750415802,0.2732124924659729,0.24914999306201935
1711795440545756200,10.609756103515625,2.1562750339508057,0.32945001125335693,0.22220000624656677
1711795440555405000,10.619405029296875,2.188037395477295,0.3746874928474426,0.1891999989748001
1711795440565054200,10.62905419921875,2.2258501052856445,0.4124999940395355,0.13791249692440033
1711795440574703600,10.63870361328125,2.246612548828125,0.46502500772476196,0.07315000146627426
1711795440584352800,10.648352783203125,2.271087408065796,0.5627874732017517,0.02681249938905239
1711795440594001700,10.658001708984376,2.2856624126434326,0.6263124942779541,-0.013612499460577965
1711795440603650800,10.66765087890625,2.3040874004364014,0.6813125014305115,-0.02694999985396862
1711795440613300200,10.67730029296875,2.3163249492645264,0.7583125233650208,-0.01718750037252903
1711795440622949400,10.686949462890626,2.3199000358581543,0.8047875165939331,-0.015949999913573265
1711795440632598500,10.6965986328125,2.3175625801086426,0.8168874979019165,-0.028187500312924385
1711795440642247700,10.70624755859375,2.299137592315674,0.7998374700546265,-0.07590000331401825
1711795440651897000,10.71589697265625,2.289375066757202,0.8365499973297119,-0.09913749992847443
1711795440661546200,10.725546142578125,2.282087564468384,0.9231749773025513,-0.08937499672174454
1711795440671195400,10.7351953125,2.264899969100952,0.9746000170707703,-0.06613750010728836
1711795440680844800,10.7448447265625,2.2368500232696533,0.9451749920845032,-0.04166249930858612
1711795440690493700,10.75449365234375,2.199037551879883,0.8438374996185303,-0.020899999886751175
1711795440700142800,10.764142822265624,2.164799928665161,0.6788374781608582,-0.06366249918937683
1711795440709792500,10.77379248046875,2.1280875205993652,0.5872625112533569,-0.10271249711513519
1711795440719441400,10.78344140625,2.0829875469207764,0.5725499987602234,-0.11618749797344208
1711795440729090600,10.793090576171876,2.030324935913086,0.6177874803543091,-0.09418749809265137
1711795440738739700,10.80273974609375,1.9705125093460083,0.6507874727249146,-0.03671250119805336
1711795440748388900,10.812388916015625,1.8947499990463257,0.6360750198364258,0.02433750033378601
1711795440758038300,10.822038330078126,1.8154125213623047,0.548212468624115,0.07686249911785126
1711795440767687400,10.8316875,1.7334624528884888,0.4174500107765198,0.09267500042915344
1711795440777336300,10.84133642578125,1.6614124774932861,0.2903999984264374,0.07809999585151672
1711795440786985700,10.85098583984375,1.6064125299453735,0.23787499964237213,0.05609999969601631
1711795440796635000,10.860634765625,1.5746500492095947,0.2513499855995178,0.025575000792741776
1711795440806284000,10.870283935546874,1.5503125190734863,0.3111625015735626,-0.02461249940097332
1711795440815933200,10.87993310546875,1.5258375406265259,0.36973750591278076,-0.10271249711513519
1711795440825582600,10.88958251953125,1.5038374662399292,0.4076874852180481,-0.18342499434947968
1711795440835231700,10.899231689453124,1.4720749855041504,0.39668750762939453,-0.2591874897480011
1711795440844881000,10.908880859375,1.4305499792099,0.33316248655319214,-0.32752498984336853
1711795440854530000,10.918530029296875,1.3890249729156494,0.23058749735355377,-0.3764750063419342
1711795440864179200,10.92817919921875,1.3547874689102173,0.15839999914169312,-0.39476248621940613
1711795440873828400,10.937828369140625,1.3242624998092651,0.14135000109672546,-0.40700000524520874
1711795440883477500,10.9474775390625,1.2912625074386597,0.2073500007390976,-0.40328750014305115
1711795440893127000,10.957126953125,1.2412124872207642,0.2928749918937683,-0.3630000054836273
1711795440902776000,10.966776123046875,1.1837375164031982,0.31968748569488525,-0.2957625091075897
1711795440912425200,10.97642529296875,1.120212435722351,0.2634499967098236,-0.22123749554157257
1711795440922074400,10.986074462890626,1.0529749393463135,0.16458749771118164,-0.14918750524520874
1711795440931723500,10.9957236328125,0.9871125221252441,0.06063750013709068,-0.08566249907016754
1711795440941373000,11.005373046875,0.9321125149726868,-0.050462499260902405,-0.045375000685453415
1711795440951022000,11.01502197265625,0.8941624760627747,-0.055412501096725464,-0.00013749999925494194
1711795440960671200,11.024671142578125,0.8648750185966492,0.05706249922513962,0.062150001525878906
1711795440970320400,11.0343203125,0.813587486743927,0.24392500519752502,0.1989624947309494
1711795440979969500,11.043969482421875,0.7878749966621399,0.2952125072479248,0.23567499220371246
1711795440989619000,11.053618896484375,0.7768750190734863,0.2866874933242798,0.2124374955892563
1711795440999268000,11.06326806640625,0.7525374889373779,0.25011250376701355,0.14767499268054962
1711795441008917200,11.072917236328125,0.7145875096321106,0.1975875049829483,0.05609999969601631
1711795441018566400,11.08256640625,0.6705874800682068,0.1755875051021576,-0.035612501204013824
1711795441028215600,11.092215576171874,0.6265875101089478,0.21216249465942383,-0.0966624990105629
1711795441037864700,11.10186474609375,0.5814874768257141,0.24639999866485596,-0.14190000295639038
1711795441047513900,11.111513916015625,0.5422999858856201,0.22439999878406525,-0.1919499933719635
1711795441057163300,11.121163330078126,0.5105375051498413,0.1779250055551529,-0.233474999666214
1711795441066812400,11.1308125,0.4690124988555908,0.12058749794960022,-0.2591874897480011
1711795441076461600,11.140461669921875,0.42377498745918274,0.08387500047683716,-0.24928750097751617
1711795441086110500,11.1501103515625,0.37619999051094055,0.03506249934434891,-0.22495000064373016
1711795441095760000,11.159759765625,0.32848748564720154,-0.02474999986588955,-0.20047499239444733
1711795441105409000,11.169408935546874,0.2919124960899353,-0.047987498342990875,-0.18342499434947968
1711795441115058200,11.17905810546875,0.2699125111103058,-0.02722499892115593,-0.16747500002384186
1711795441124707300,11.188707275390625,0.26138749718666077,0.026537500321865082,-0.14547500014305115
1711795441134356500,11.1983564453125,0.2601499855518341,0.0705375000834465,-0.09542500227689743
1711795441144005600,11.208005615234375,0.25286251306533813,0.08153750002384186,-0.03918749839067459
1711795441153654800,11.21765478515625,0.24543750286102295,0.0668250024318695,0.02186249941587448
1711795441163304200,11.22730419921875,0.2320999950170517,0.04853750020265579,0.08291249722242355
1711795441172953300,11.236953369140625,0.21615000069141388,0.03629999980330467,0.1256749927997589
1711795441182602500,11.2466025390625,0.20143750309944153,0.05829999968409538,0.1331000030040741
1711795441192251600,11.256251708984376,0.19910000264644623,0.07411249727010727,0.0976250022649765
1711795441201900800,11.26590087890625,0.19786250591278076,0.07782500237226486,0.0340999998152256
1711795441211550000,11.275550048828125,0.19043749570846558,0.08277499675750732,-0.047712501138448715
1711795441221199000,11.28519921875,0.1868624985218048,0.06077500060200691,-0.12594999372959137
1711795441230848500,11.2948486328125,0.18314999341964722,0.03629999980330467,-0.16871249675750732
1711795441240497700,11.30449755859375,0.16967499256134033,0.029012499377131462,-0.1662375032901764
1711795441250146800,11.314146728515626,0.14533749222755432,0.03506249934434891,-0.13089999556541443
1711795441259796000,11.3237958984375,0.11962500214576721,0.03258749842643738,-0.07837499678134918
1711795441269445400,11.3334453125,0.09281250089406967,0.01677500084042549,-0.030662499368190765
1711795441279094500,11.343094482421876,0.07081250101327896,-0.002749999985098839,-0.012374999932944775
1711795441288743700,11.35274365234375,0.05486249923706055,-0.02722499892115593,-0.02694999985396862
1711795441298392800,11.362392822265624,0.025575000792741776,-0.05169999971985817,-0.055137500166893005
1711795441308042000,11.3720419921875,-0.015949999913573265,-0.06627500057220459,-0.05871250107884407
1711795441317691100,11.381691162109375,-0.062424998730421066,-0.040699999779462814,-0.01966249942779541
1711795441327340300,11.39134033203125,-0.10766249895095825,-0.02474999986588955,0.0658624991774559
1711795441336989400,11.400989501953125,-0.14794999361038208,-0.012649999931454659,0.16843749582767487
1711795441346638600,11.410638671875,-0.17476250231266022,0.014299999922513962,0.2503874897956848
1711795441356287700,11.420287841796876,-0.1919499933719635,0.03506249934434891,0.2919124960899353
1711795441365937000,11.42993701171875,-0.20047499239444733,0.008249999955296516,0.2686749994754791
1711795441375586300,11.43958642578125,-0.20652499794960022,-0.056512501090765,0.19167499244213104
1711795441385235500,11.4492353515625,-0.2040500044822693,-0.12622499465942383,0.09033749997615814
1711795441394884600,11.458884521484375,-0.1882375031709671,-0.14451250433921814,-0.006187499966472387
1711795441404533800,11.46853369140625,-0.17352500557899475,-0.0882750004529953,-0.06847500056028366
1711795441414183000,11.478182861328126,-0.15399999916553497,0.014299999922513962,-0.08318749815225601
1711795441423832000,11.48783203125,-0.13942499458789825,0.15482500195503235,-0.050187498331069946
1711795441433481200,11.497481201171874,-0.1307625025510788,0.25987499952316284,0.004812499973922968
1711795441443130400,11.50713037109375,-0.13199999928474426,0.26840001344680786,0.06710000336170197
1711795441452779800,11.51677978515625,-0.13571250438690186,0.22687499225139618,0.10615000128746033
1711795441462428700,11.5264287109375,-0.14423750340938568,0.1363999992609024,0.1256749927997589
1711795441472078300,11.536078369140625,-0.15152500569820404,0.024062499403953552,0.14767499268054962
1711795441481727200,11.545727294921875,-0.15523749589920044,-0.052937500178813934,0.18438750505447388
1711795441491376400,11.55537646484375,-0.1564749926328659,-0.09569999575614929,0.21738749742507935
1711795441501025500,11.565025634765625,-0.1527625024318695,-0.10051249712705612,0.2404875010251999
1711795441510674700,11.5746748046875,-0.14547500014305115,-0.082225002348423,0.25519999861717224
1711795441520324000,11.584323974609376,-0.1344749927520752,-0.06146249920129776,0.2576749920845032
1711795441529973000,11.593972900390625,-0.1344749927520752,-0.05169999971985817,0.2601499855518341
1711795441539622400,11.603622314453125,-0.13695000112056732,-0.038224998861551285,0.2576749920845032
1711795441549271600,11.613271484375,-0.13695000112056732,-0.04441250115633011,0.2381500005722046
1711795441558920700,11.622920654296875,-0.1307625025510788,-0.023512499406933784,0.20762500166893005
1711795441568569900,11.63256982421875,-0.12952500581741333,0.030112499371170998,0.16596250236034393
1711795441578219000,11.642218994140626,-0.11866249889135361,0.11082500219345093,0.11591249704360962
1711795441587868400,11.651868408203125,-0.0989999994635582,0.18287499248981476,0.05486249923706055
1711795441597517600,11.661517578125,-0.07095000147819519,0.24392500519752502,-0.00013749999925494194
1711795441607166700,11.671166748046875,-0.05871250107884407,0.27568748593330383,-0.03437500074505806
1711795441616815900,11.68081591796875,-0.07342500239610672,0.22439999878406525,-0.052662499248981476
1711795441626465000,11.690465087890624,-0.08689999580383301,0.12182500213384628,-0.037950001657009125
1711795441636114200,11.7001142578125,-0.0966624990105629,0.025299999862909317,0.005912499967962503
1711795441645763300,11.709763427734375,-0.0989999994635582,-0.011412499472498894,0.06091250106692314
1711795441655412500,11.71941259765625,-0.09047500044107437,0.013062499463558197,0.10862500220537186
1711795441665061600,11.7290615234375,-0.07466249912977219,0.0705375000834465,0.13420000672340393
1711795441674710800,11.738710693359375,-0.047712501138448715,0.11329999566078186,0.1428624987602234
1711795441684360200,11.748360107421876,-0.01966249942779541,0.16940000653266907,0.13186250627040863
1711795441694009300,11.75800927734375,0.006049999967217445,0.19882500171661377,0.10009999573230743
1711795441703658200,11.767658203125,0.032862499356269836,0.20363749563694,0.057337500154972076
1711795441713307600,11.7773076171875,0.057337500154972076,0.18039999902248383,0.010862499475479126
1711795441722956800,11.786956787109375,0.07686249911785126,0.1303499937057495,-0.030662499368190765
1711795441732606000,11.79660595703125,0.09157499670982361,0.08387500047683716,-0.059950001537799835
1711795441742255000,11.806255126953126,0.1013374999165535,0.05101250112056732,-0.08318749815225601
1711795441751904300,11.815904296875,0.10615000128746033,0.05335000157356262,-0.0929500013589859
1711795441761553400,11.825553466796874,0.11357499659061432,0.0765874981880188,-0.09418749809265137
1711795441771202600,11.83520263671875,0.11962500214576721,0.1023000031709671,-0.0929500013589859
1711795441780852000,11.84485205078125,0.12086249887943268,0.11082500219345093,-0.08318749815225601
1711795441790501000,11.854501220703124,0.10986249893903732,0.09982500225305557,-0.06971249729394913
1711795441800150300,11.864150390625,0.08415000140666962,0.0387750007212162,-0.06737499684095383
1711795441809799700,11.873799560546875,0.05857500061392784,-0.03451250120997429,-0.06971249729394913
1711795441819448800,11.88344873046875,0.04262499883770943,-0.08703749626874924,-0.07590000331401825
1711795441829098000,11.893097900390625,0.04138749837875366,-0.11275000125169754,-0.0929500013589859
