time,seconds_elapsed,z,y,x
1711523595018936600,0.1339365234375,0.04175399988889694,0.008533000014722347,-0.003727999981492758
1711523595028582400,0.14358251953125,-0.0038620000705122948,0.012760999612510204,-0.0029329999815672636
1711523595038228200,0.153228271484375,-0.0443819984793663,0.0018159999744966626,-0.007441999856382608
1711523595047874000,0.1628740234375,-0.048478998243808746,0.001753999968059361,0.003318999893963337
1711523595057519900,0.172519775390625,-0.060527998954057693,-0.007501999847590923,0.005625000223517418
1711523595067165400,0.18216552734375,-0.06984899938106537,-0.00408599991351366,0.004484000150114298
1711523595076811300,0.191811279296875,-0.07043900340795517,-0.053957998752593994,0.017152000218629837
1711523595086457000,0.20145703125,-0.01702200062572956,-0.06180199980735779,0.03204600140452385
1711523595096103000,0.21110302734375,0.03617599979043007,-0.04184599965810776,0.032037001103162766
1711523595105748700,0.220748779296875,0.07576599717140198,-0.06308700144290924,0.04493900015950203
1711523595115394600,0.23039453125,0.11554600298404694,-0.09882999956607819,0.04433000087738037
1711523595125040000,0.2400400390625,0.0874980017542839,-0.08119700103998184,0.07152199745178223
1711523595134686200,0.249686279296875,0.018845999613404274,-0.07817099988460541,0.08580700308084488
1711523595144332000,0.25933203125,-0.022461000829935074,-0.1028200015425682,0.11390399932861328
1711523595153977900,0.268977783203125,-0.009499999694526196,-0.11314500123262405,0.18198099732398987
1711523595163623400,0.27862353515625,-0.010518999770283699,-0.10863000154495239,0.20779600739479065
1711523595173269500,0.28826953125,0.07000400125980377,-0.08968500047922134,0.19250600039958954
1711523595182915300,0.297915283203125,0.16207300126552582,-0.06458999961614609,0.15320399403572083
1711523595192561200,0.30756103515625,0.172543004155159,0.03404200077056885,-0.08261799812316895
1711523595202206700,0.317206787109375,0.17306700348854065,0.0885619968175888,-0.1291559934616089
1711523595211852500,0.3268525390625,0.11864499747753143,0.07554999738931656,-0.14021199941635132
1711523595221498400,0.336498291015625,0.02445399947464466,0.07136700302362442,-0.06662999838590622
1711523595231144200,0.346144287109375,-0.01644499972462654,0.04433299973607063,0.0014700000174343586
1711523595240790000,0.3557900390625,-0.003510999958962202,0.030903000384569168,0.10079599916934967
1711523595250435600,0.365435546875,0.022762000560760498,0.020966999232769012,0.09660399705171585
1711523595260081400,0.375081298828125,0.14402200281620026,0.012635000050067902,0.036993999034166336
1711523595269727200,0.384727294921875,0.2521899938583374,0.03016600012779236,-0.01853800006210804
1711523595279373000,0.394373046875,0.26548200845718384,0.04660499840974808,-0.07009799778461456
1711523595289019000,0.404018798828125,0.26525500416755676,0.07493200153112411,-0.08410699665546417
1711523595298664700,0.413664794921875,0.211777001619339,0.09794899821281433,-0.08077699691057205
1711523595308310500,0.423310546875,0.14394600689411163,0.10984399914741516,-0.027024000883102417
1711523595317956600,0.43295654296875,0.04971100017428398,0.0893310010433197,0.024855999276041985
1711523595327602200,0.442602294921875,0.022911999374628067,0.07361400127410889,0.03923700004816055
1711523595337248000,0.452248046875,0.009855000302195549,0.04266799986362457,0.05094299837946892
1711523595346893600,0.4618935546875,-0.0036810000892728567,0.04231400042772293,-0.016891000792384148
1711523595356539400,0.471539306640625,-0.0031789999920874834,0.0404760017991066,-0.041742999106645584
1711523595366185200,0.481185302734375,-0.017023999243974686,0.0006280000088736415,-0.0558990016579628
1711523595375831000,0.4908310546875,0.010125000029802322,-0.010838000103831291,-0.06485000252723694
1711523595385476900,0.500476806640625,0.03730599954724312,-0.023528000339865685,-0.06315000355243683
1711523595395122400,0.510122314453125,0.023625999689102173,-0.021340999752283096,-0.057978998869657516
1711523595404768300,0.519768310546875,0.010060000233352184,-0.048475999385118484,-0.05688200145959854
1711523595414414000,0.5294140625,-0.0033569999504834414,-0.007333000190556049,-0.06675499677658081
1711523595424060200,0.53906005859375,-0.003487000009045005,0.00598399993032217,-0.06949599832296371
1711523595433706000,0.5487060546875,-0.003421999979764223,0.00532800005748868,-0.05672699958086014
1711523595443351800,0.558351806640625,-0.04443899914622307,-0.022422000765800476,-0.01956300064921379
1711523595452997400,0.567997314453125,-0.01741800084710121,-0.008736000396311283,0.018187999725341797
1711523595462643200,0.577643310546875,-0.0310479998588562,-0.008528999984264374,-0.008624999783933163
1711523595472289300,0.587289306640625,-0.031022999435663223,-0.033376000821590424,-0.05611399933695793
1711523595481934800,0.596934814453125,-0.003633999964222312,-0.018908999860286713,-0.09247499704360962
1711523595491580700,0.60658056640625,0.010060000233352184,-0.016600999981164932,-0.05788800120353699
1711523595501226500,0.6162265625,-0.017458999529480934,-0.0009180000051856041,-0.015534999780356884
1711523595510872000,0.6258720703125,-0.03191699832677841,-0.011099999770522118,0.02242100052535534
1711523595520518100,0.63551806640625,-0.03286999836564064,0.020399000495672226,0.07450100034475327
1711523595530163700,0.645163818359375,0.04756399989128113,0.011649000458419323,0.05519900098443031
1711523595539809500,0.6548095703125,0.1281770020723343,0.04439600184559822,0.026538999751210213
1711523595549455400,0.664455322265625,0.20898200571537018,0.06162000074982643,0.036364998668432236
1711523595559101200,0.67410107421875,0.2763339877128601,0.06554800271987915,0.06314399838447571
1711523595568746800,0.683746826171875,0.2485080063343048,0.07932200282812119,0.10932499915361404
1711523595578392600,0.693392578125,0.18032799661159515,0.12101200222969055,0.16488799452781677
1711523595588038400,0.703038330078125,0.2205449938774109,0.051927000284194946,0.23412899672985077
1711523595597684200,0.712684326171875,0.2617419958114624,0.11891400068998337,0.2089260071516037
1711523595607330000,0.722330078125,0.24882400035858154,0.12519900500774384,0.15817999839782715
1711523595616975600,0.7319755859375,0.16765500605106354,0.13512499630451202,0.12898500263690948
1711523595626621400,0.741621337890625,0.07411699742078781,0.1366170048713684,0.06768900156021118
1711523595636267300,0.751267333984375,-0.03402499854564667,0.17225100100040436,0.024452999234199524
1711523595645913000,0.7609130859375,-0.09919600188732147,0.16961200535297394,0.0091559998691082
1711523595655559200,0.77055908203125,-0.1530189961194992,0.16593599319458008,0.022278999909758568
1711523595665204700,0.780204833984375,-0.13708899915218353,0.16603200137615204,0.0728909969329834
1711523595674850600,0.7898505859375,-0.09618200361728668,0.11155600100755692,0.08724900335073471
1711523595684496400,0.799496337890625,-0.04142799973487854,0.08139099925756454,0.08275800198316574
1711523595694142200,0.80914208984375,0.06691399961709976,0.04387199878692627,0.055743999779224396
1711523595703787800,0.818787841796875,0.12020599842071533,-0.005146999843418598,0.03960099816322327
1711523595713433600,0.82843359375,0.11969400197267532,-0.0023670000955462456,-0.014669000171124935
1711523595723079700,0.83807958984375,0.09159500151872635,-0.05140199884772301,-0.02560099959373474
1711523595732725200,0.847725341796875,0.03727500140666962,-0.09243600070476532,0.0036929999478161335
1711523595742371300,0.857371337890625,-0.07175499945878983,-0.06349699944257736,-0.019555000588297844
1711523595752017000,0.867016845703125,-0.19388699531555176,-0.037790000438690186,-0.030604999512434006
1711523595761662700,0.876662841796875,-0.27473700046539307,-0.026851000264286995,-0.03845300152897835
1711523595771308500,0.88630859375,-0.3156610131263733,-0.02608500048518181,-0.05080400034785271
1711523595780954000,0.8959541015625,-0.2881760001182556,-0.0121069997549057,-0.04595499858260155
1711523595790600000,0.905599853515625,-0.2345219999551773,-0.007249999791383743,-0.11275900155305862
1711523595800245800,0.915245849609375,-0.0842910036444664,0.06179499998688698,-0.10377299785614014
1711523595809891600,0.9248916015625,-0.017148999497294426,0.02684199996292591,-0.03344099968671799
1711523595819537400,0.934537353515625,0.03681400045752525,0.057144999504089355,-0.005394000094383955
1711523595829183200,0.944183349609375,0.09024599939584732,0.08998599648475647,0.04900500178337097
1711523595838829000,0.9538291015625,0.09000100195407867,0.11601199954748154,0.0826909989118576
1711523595848475000,0.963474853515625,0.07551799714565277,0.1337289959192276,0.09475699812173843
1711523595858120400,0.973120361328125,0.06196599826216698,0.11709900200366974,0.11440800130367279
1711523595867766300,0.982766357421875,0.034223999828100204,0.07915700227022171,0.12866400182247162
1711523595877412400,0.992412353515625,0.07458999752998352,0.06588900089263916,0.1083270013332367
1711523595887058000,1.002057861328125,0.07384300231933594,0.05592700093984604,0.08001100271940231
1711523595896703700,1.011703857421875,0.08737099915742874,0.0827609971165657,0.02289400063455105
1711523595906349600,1.021349609375,0.11411400139331818,0.12641899287700653,-0.03128200024366379
1711523595915995400,1.030995361328125,0.08831100165843964,0.1344580054283142,-0.06579899787902832
1711523595925641200,1.04064111328125,0.04759899899363518,0.10764800012111664,-0.062210001051425934
1711523595935287000,1.050287109375,0.035923998802900314,0.15380099415779114,-0.056095000356435776
1711523595944932600,1.0599326171875,0.02219199948012829,0.16854099929332733,0.013485999777913094
1711523595954578400,1.069578369140625,0.0368259996175766,0.1616940051317215,0.05027899891138077
1711523595964224300,1.079224365234375,0.09064599871635437,0.16486400365829468,0.049205999821424484
1711523595973870000,1.0888701171875,0.15890100598335266,0.12217900156974792,0.032673001289367676
1711523595983515600,1.098515625,0.24009999632835388,0.08416300266981125,0.03281399980187416
1711523595993161500,1.108161376953125,0.23955200612545013,0.04550199955701828,0.01704300008714199
1711523596002807300,1.117807373046875,0.21214699745178223,0.005504999775439501,0.003367000026628375
1711523596012453000,1.127453125,0.18498200178146362,0.03214700147509575,0.002816000021994114
1711523596022099000,1.137098876953125,0.1444379985332489,0.04397900030016899,-0.024678999558091164
1711523596031745000,1.1467451171875,0.1042490005493164,0.039990998804569244,0.001408000010997057
1711523596041390600,1.156390625,0.06392700225114822,0.03685599938035011,0.06878200173377991
1711523596051036400,1.166036376953125,0.023663999512791634,0.045092999935150146,0.07590699940919876
1711523596060682000,1.175681884765625,-0.01694300025701523,0.056671999394893646,0.07383300364017487
1711523596070328000,1.185328125,-0.030338000506162643,0.03907899931073189,0.10633199661970139
1711523596079973600,1.1949736328125,-0.07111000269651413,-0.04339300096035004,0.15995299816131592
1711523596089619700,1.20461962890625,0.03734999895095825,-0.001930000027641654,0.09916500002145767
1711523596099265300,1.214265380859375,0.11891800165176392,-0.0015160000184550881,0.04346099868416786
1711523596108911000,1.2239111328125,0.09165500104427338,0.03775399923324585,0.051777999848127365
1711523596118557000,1.233556884765625,0.09182599931955338,0.06365499645471573,0.02319199964404106
1711523596128202800,1.24320263671875,0.03800100088119507,0.05819600075483322,0.085037000477314
1711523596137848600,1.2528486328125,-0.029590999707579613,0.04175899922847748,0.08461199700832367
1711523596147494400,1.262494384765625,-0.11056800186634064,0.02278600074350834,0.08006100356578827
1711523596157140000,1.272139892578125,-0.15101000666618347,-0.04770899936556816,0.09305699914693832
1711523596166785800,1.281785888671875,-0.1786939948797226,-0.04761900007724762,0.08581800013780594
1711523596176431600,1.291431640625,-0.23359400033950806,-0.06035599857568741,0.054283998906612396
1711523596186077400,1.301077392578125,-0.1651650071144104,0.019850000739097595,-0.04040500149130821
1711523596195723000,1.310722900390625,-0.04288500174880028,0.02136700041592121,-0.13596799969673157
1711523596205368800,1.320368896484375,0.01169199962168932,-0.029745999723672867,-0.16429199278354645
1711523596215014700,1.3300146484375,0.08012499660253525,-0.030331000685691833,-0.2286989986896515
1711523596224660500,1.339660400390625,0.09490799903869629,-0.030155999585986137,-0.2635189890861511
1711523596234306300,1.349306396484375,-0.04020300135016441,-0.0350940003991127,-0.2474450021982193
1711523596243951900,1.358951904296875,-0.24210000038146973,-0.04150500148534775,-0.25591400265693665
1711523596253598000,1.368597900390625,-0.3634350001811981,-0.006417000200599432,-0.32182300090789795
1711523596263243800,1.378243896484375,-0.48207101225852966,0.022846000269055367,-0.32296401262283325
1711523596272889300,1.387889404296875,-0.5767539739608765,-0.006138999946415424,-0.30454298853874207
1711523596282535400,1.397535400390625,-0.49207600951194763,0.016631999984383583,-0.34242600202560425
1711523596292181200,1.40718115234375,-0.3292829990386963,0.04971100017428398,-0.4446299970149994
1711523596301827000,1.4168271484375,-0.21844999492168427,0.03950599953532219,-0.4237079918384552
1711523596311472600,1.42647265625,-0.08317600190639496,0.03409299999475479,-0.45593100786209106
1711523596321118500,1.436118408203125,0.08335399627685547,0.11718299984931946,-0.5492619872093201
1711523596330764000,1.445763916015625,0.17869099974632263,0.23043499886989594,-0.6072840094566345
1711523596340410000,1.45541015625,0.13069400191307068,0.2967050075531006,-0.5789409875869751
1711523596350056000,1.465055908203125,-0.004327000118792057,0.38871198892593384,-0.5454800128936768
1711523596359701500,1.474701416015625,-0.15831400454044342,0.4497449994087219,-0.4598880112171173
1711523596369347300,1.484347412109375,-0.266092985868454,0.5117030143737793,-0.40576499700546265
1711523596378993200,1.4939931640625,-0.3787440061569214,0.538025975227356,-0.3205049932003021
1711523596388639000,1.503638916015625,-0.41963300108909607,0.522072970867157,-0.2306469976902008
1711523596398284800,1.513284912109375,-0.3986150026321411,0.5021389722824097,-0.1704300045967102
1711523596407930400,1.522930419921875,-0.37288200855255127,0.4936690032482147,-0.12080699950456619
1711523596417576200,1.532576171875,-0.286668986082077,0.43273401260375977,-0.0899370014667511
1711523596427222000,1.542221923828125,-0.26222899556159973,0.43202900886535645,-0.09124699980020523
1711523596436868000,1.5518681640625,-0.24568000435829163,0.4081389904022217,-0.12342700362205505
1711523596446513700,1.561513671875,-0.24968299269676208,0.3466559946537018,-0.18953700363636017
1711523596456159500,1.571159423828125,-0.1938679963350296,0.3345150053501129,-0.21289700269699097
1711523596465805300,1.580805419921875,-0.2260819971561432,0.27869001030921936,-0.23679199814796448
1711523596475451100,1.590451171875,-0.20084400475025177,0.19830000400543213,-0.14438499510288239
1711523596485097000,1.600096923828125,-0.09836000204086304,0.1614679992198944,-0.07877799868583679
1711523596494742800,1.60974267578125,-0.02180900052189827,0.15808799862861633,-0.02933100052177906
1711523596504388400,1.619388427734375,0.09346000105142593,0.17835700511932373,-0.037351999431848526
1711523596514034200,1.6290341796875,0.17086400091648102,0.25256600975990295,-0.056940000504255295
1711523596523680300,1.63868017578125,0.16445499658584595,0.31039801239967346,-0.06408900022506714
1711523596533325800,1.648325927734375,0.1211019977927208,0.3204599916934967,-0.002753000007942319
1711523596542971600,1.6579716796875,0.061393000185489655,0.386898010969162,0.018703000620007515
1711523596552617500,1.667617431640625,-0.02186799980700016,0.3618150055408478,0.08775799721479416
1711523596562263300,1.67726318359375,-0.054023001343011856,0.3304550051689148,0.14765000343322754
1711523596571909000,1.6869091796875,0.011785999871790409,0.30740898847579956,0.13017399609088898
1711523596581555000,1.696554931640625,0.1297059953212738,0.31454700231552124,0.09173800051212311
1711523596591200500,1.706200439453125,0.19630399346351624,0.31617099046707153,-0.004269000142812729
1711523596600846300,1.715846435546875,0.08363600075244904,0.31626901030540466,-0.08782000094652176
1711523596610492200,1.7254921875,-0.051628999412059784,0.30680200457572937,-0.11023300141096115
1711523596620138000,1.735137939453125,-0.19035999476909637,0.4090079963207245,-0.20827199518680573
1711523596629783600,1.744783447265625,-0.403331995010376,0.4370580017566681,-0.2592580020427704
1711523596639429400,1.754429443359375,-0.4459100067615509,0.4553599953651428,-0.2702850103378296
1711523596649075500,1.764075439453125,-0.35806798934936523,0.4954780042171478,-0.3246060013771057
1711523596658721000,1.773720947265625,-0.3053619861602783,0.5026010274887085,-0.3306950032711029
1711523596668366800,1.783366943359375,-0.25910699367523193,0.45323100686073303,-0.3272620141506195
1711523596678012700,1.7930126953125,-0.1924780011177063,0.5011420249938965,-0.3295699954032898
1711523596687658500,1.802658447265625,-0.145906001329422,0.5033310055732727,-0.2750529944896698
1711523596697304000,1.812303955078125,-0.10662499815225601,0.5091419816017151,-0.2675879895687103
1711523596706950000,1.821949951171875,-0.10149700194597244,0.5239689946174622,-0.23659999668598175
1711523596716596000,1.831595947265625,-0.03581000119447708,0.5168989896774292,-0.21026499569416046
1711523596726241500,1.841241455078125,0.17087799310684204,0.48564401268959045,-0.16698600351810455
1711523596735887400,1.850887451171875,0.39868301153182983,0.5492050051689148,-0.19281500577926636
1711523596745533200,1.860533203125,0.5497810244560242,0.5596889853477478,-0.1491290032863617
1711523596755179000,1.870178955078125,0.6279399991035461,0.6071829795837402,-0.09892400354146957
1711523596764824800,1.879824951171875,0.6440939903259277,0.6373029947280884,-0.07382199913263321
1711523596774470400,1.889470458984375,0.696528971195221,0.6249849796295166,0.09017100185155869
1711523596784116500,1.899116455078125,0.6995180249214172,0.6512330174446106,0.1750590056180954
1711523596793762000,1.908761962890625,0.8210189938545227,0.6501139998435974,0.2627350091934204
1711523596803408000,1.918407958984375,0.9736859798431396,0.637781023979187,0.2928270101547241
1711523596813053700,1.9280537109375,1.1643699407577515,0.6468260288238525,0.24927599728107452
1711523596822699500,1.937699462890625,1.2221230268478394,0.5803899765014648,0.2834259867668152
1711523596832345300,1.947345458984375,1.223899006843567,0.5542160272598267,0.17346400022506714
1711523596841991200,1.9569912109375,1.0663939714431763,0.5215029716491699,-0.003868000116199255
1711523596851637000,1.966636962890625,0.8520140051841736,0.420073002576828,-0.17776300013065338
1711523596861282600,1.976282470703125,0.5866649746894836,0.3742539882659912,-0.3198089897632599
1711523596870928400,1.985928466796875,0.3985289931297302,0.3055480122566223,-0.4790320098400116
1711523596880574500,1.995574462890625,0.443013995885849,0.19814200699329376,-0.5247960090637207
1711523596890220300,2.00522021484375,0.5650879740715027,0.049320001155138016,-0.49000900983810425
1711523596899865900,2.014865966796875,0.7775369882583618,-0.1801290065050125,-0.3939000070095062
1711523596909511700,2.02451171875,1.101269006729126,-0.38400301337242126,-0.3167929947376251
1711523596919157500,2.034157470703125,1.4977010488510132,-0.541566014289856,-0.2455430030822754
1711523596928803300,2.04380322265625,1.7398940324783325,-0.7331550121307373,-0.13160699605941772
1711523596938449200,2.05344921875,1.767261028289795,-0.83092200756073,-0.03541500121355057
1711523596948094700,2.0630947265625,1.5767899751663208,-0.9435330033302307,0.03584500029683113
1711523596957740500,2.072740478515625,1.1847150325775146,-0.9870269894599915,0.11246299743652344
1711523596967386400,2.082386474609375,0.7250789999961853,-1.034633994102478,0.14459100365638733
1711523596977032200,2.0920322265625,0.22794899344444275,-0.960669994354248,0.11730799823999405
1711523596986678000,2.101677978515625,-0.0941070020198822,-1.0285860300064087,0.2477550059556961
1711523596996324000,2.111323974609375,-0.3613319993019104,-1.0585299730300903,0.3644610047340393
1711523597005969700,2.1209697265625,-0.5357149839401245,-1.008152961730957,0.3888309895992279
1711523597015615500,2.130615478515625,-0.6945520043373108,-0.9271360039710999,0.43638500571250916
1711523597025261000,2.140260986328125,-0.7626649737358093,-0.943917989730835,0.5394650101661682
1711523597034907100,2.1499072265625,-0.6653439998626709,-0.927640974521637,0.5824009776115417
1711523597044553000,2.159552978515625,-0.42239999771118164,-0.997639000415802,0.5891510248184204
1711523597054198500,2.169198486328125,-0.1223130002617836,-0.9515669941902161,0.4784260094165802
1711523597063844400,2.17884423828125,0.17436599731445312,-0.9195610284805298,0.414885014295578
1711523597073490200,2.188490234375,0.38022199273109436,-0.8878780007362366,0.3971560001373291
1711523597083136000,2.198135986328125,0.47324100136756897,-0.9542170166969299,0.4564819931983948
1711523597092781800,2.20778173828125,0.5026410222053528,-0.9503870010375977,0.5094519853591919
1711523597102427400,2.217427490234375,0.5418840050697327,-1.0349689722061157,0.5214620232582092
1711523597112073500,2.227073486328125,0.517952024936676,-0.9799420237541199,0.47694501280784607
1711523597121719300,2.23671923828125,0.43558698892593384,-1.0027379989624023,0.448060005903244
1711523597131365000,2.246365234375,0.30472901463508606,-0.9441289901733398,0.41074201464653015
1711523597141010700,2.2560107421875,0.14156100153923035,-1.0004429817199707,0.5228000283241272
1711523597150656500,2.265656494140625,-0.0022690000478178263,-0.971572995185852,0.5984299778938293
1711523597160302300,2.27530224609375,-0.08357399702072144,-0.9064080119132996,0.5905190110206604
1711523597169948200,2.2849482421875,-0.17112599313259125,-0.8202549815177917,0.46130800247192383
1711523597179593700,2.29459375,-0.23869599401950836,-0.7015309929847717,0.33452099561691284
1711523597189239600,2.304239501953125,-0.31025901436805725,-0.5644019842147827,0.1959879994392395
1711523597198885600,2.3138857421875,-0.3643510043621063,-0.48548299074172974,0.18994499742984772
1711523597208531200,2.32353125,-0.4214150011539459,-0.4097279906272888,0.15869499742984772
1711523597218177000,2.333177001953125,-0.46231698989868164,-0.36812201142311096,0.1793839931488037
1711523597227823000,2.342822998046875,-0.4779979884624481,-0.30970901250839233,0.1398790031671524
1711523597237469000,2.352468994140625,-0.5463110208511353,-0.27976199984550476,0.07118599861860275
1711523597247114800,2.36211474609375,-0.6430670022964478,-0.22544699907302856,0.005154000129550695
1711523597256760300,2.37176025390625,-0.6981490254402161,-0.12335500121116638,-0.06070899963378906
1711523597266406100,2.38140625,-0.6985570192337036,-0.04843999817967415,-0.14188499748706818
1711523597276051700,2.3910517578125,-0.6451460123062134,-0.06348200142383575,-0.16301600635051727
1711523597285697500,2.400697509765625,-0.5648679733276367,-0.09976699948310852,-0.14464299380779266
1711523597295343400,2.41034326171875,-0.26672300696372986,-0.16343699395656586,-0.14917899668216705
1711523597304989200,2.4199892578125,-0.02450300008058548,-0.23814299702644348,-0.15973299741744995
1711523597314635300,2.42963525390625,0.23284600675106049,-0.302046000957489,-0.19808700680732727
1711523597324280800,2.43928076171875,0.271109014749527,-0.2965080142021179,-0.2537280023097992
1711523597333927000,2.448927001953125,0.2296610027551651,-0.2611980140209198,-0.28738000988960266
1711523597343572500,2.458572509765625,0.03793400153517723,-0.23134200274944305,-0.21514800190925598
1711523597353218300,2.46821826171875,-0.16600899398326874,-0.17902199923992157,-0.1016009971499443
1711523597362864000,2.477864013671875,-0.4108229875564575,-0.11207900196313858,-0.026318000629544258
1711523597372510000,2.487510009765625,-0.6687560081481934,0.004455000162124634,0.09024299681186676
1711523597382155800,2.49715576171875,-0.9120299816131592,0.0946590006351471,0.17261600494384766
1711523597391801600,2.506801513671875,-1.0066319704055786,0.10595200210809708,0.26869699358940125
1711523597401447400,2.516447509765625,-0.9507449865341187,0.15921300649642944,0.2930859923362732
1711523597411093000,2.526093017578125,-0.8148109912872314,0.18040400743484497,0.32054001092910767
1711523597420738800,2.53573876953125,-0.5289890170097351,0.12551799416542053,0.3138130009174347
1711523597430384600,2.545384521484375,-0.2846960127353668,0.24615900218486786,0.3085469901561737
1711523597440030500,2.555030517578125,-0.16221000254154205,0.21427400410175323,0.32029300928115845
1711523597449676000,2.564676025390625,-0.012993000447750092,0.22068099677562714,0.32134199142456055
1711523597459322000,2.574322021484375,-0.025505000725388527,0.28627198934555054,0.2246759980916977
1711523597468968000,2.583968017578125,-0.12062600255012512,0.3239710032939911,0.16721999645233154
1711523597478613800,2.59361376953125,-0.29473599791526794,0.34689798951148987,0.13027499616146088
1711523597488259300,2.60325927734375,-0.4707239866256714,0.39086899161338806,0.10186100006103516
1711523597497905200,2.6129052734375,-0.5617280006408691,0.40411698818206787,0.07010500133037567
1711523597507551000,2.622551025390625,-0.615181028842926,0.42153200507164,0.09530600160360336
1711523597517196500,2.632196533203125,-0.6375740170478821,0.4991990029811859,0.12718400359153748
1711523597526842400,2.64184228515625,-0.5007500052452087,0.5890889763832092,0.18113000690937042
1711523597536488200,2.65148828125,-0.41493600606918335,0.5362280011177063,0.29793301224708557
1711523597546134000,2.661134033203125,-0.3061020076274872,0.5096359848976135,0.40514400601387024
1711523597555779800,2.67077978515625,-0.15429699420928955,0.4451879858970642,0.46737900376319885
1711523597565425700,2.68042578125,0.035241998732089996,0.43947699666023254,0.5151230096817017
1711523597575071500,2.690071533203125,0.19918200373649597,0.38781699538230896,0.465285986661911
1711523597584717300,2.69971728515625,0.41553500294685364,0.31752800941467285,0.4574100077152252
1711523597594363100,2.709363037109375,0.6464030146598816,0.27758899331092834,0.40029799938201904
1711523597604009000,2.719009033203125,0.9038739800453186,0.2195660024881363,0.34079599380493164
1711523597613654800,2.72865478515625,1.0123209953308105,0.2210180014371872,0.3056679964065552
1711523597623300600,2.738300537109375,1.039275050163269,0.2639150023460388,0.24842700362205505
1711523597632946200,2.7479462890625,0.98649001121521,0.3305079936981201,0.18306000530719757
1711523597642592300,2.75759228515625,0.8240879774093628,0.3768469989299774,0.17239299416542053
1711523597652238000,2.767238037109375,0.6908259987831116,0.3116289973258972,0.23280400037765503
1711523597661884000,2.7768837890625,0.5700500011444092,0.2163970023393631,0.3624809980392456
1711523597671529500,2.786529541015625,0.5037360191345215,0.1320350021123886,0.4468579888343811
1711523597681175300,2.79617529296875,0.46417298913002014,0.1352429986000061,0.4690220057964325
1711523597690821400,2.8058212890625,0.47878798842430115,0.09835200011730194,0.3434720039367676
1711523597700467000,2.815467041015625,0.5612260103225708,0.13315600156784058,0.12688599526882172
1711523597710112800,2.82511279296875,0.6306570172309875,0.1636040061712265,-0.018448999151587486
1711523597719758800,2.8347587890625,0.5223760008811951,0.18536299467086792,-0.11113700270652771
1711523597729404700,2.84440478515625,0.3879089951515198,0.19953200221061707,-0.08900699764490128
1711523597739050200,2.85405029296875,0.25192001461982727,0.12962999939918518,0.06457699835300446
1711523597748696000,2.863696044921875,0.12879300117492676,0.010862999595701694,0.21675600111484528
1711523597758342000,2.873341796875,0.04602599889039993,-0.14474399387836456,0.27386200428009033
1711523597767987700,2.88298779296875,0.014790999703109264,-0.2773689925670624,0.31119000911712646
1711523597777633300,2.89263330078125,0.17588800191879272,-0.2996029853820801,0.10683699697256088
1711523597787279000,2.902279052734375,0.22563999891281128,-0.2348639965057373,-0.12927499413490295
1711523597796925000,2.911925048828125,0.33180299401283264,-0.22523799538612366,-0.3175100088119507
1711523597806570800,2.92157080078125,0.6131889820098877,-0.18782000243663788,-0.46024999022483826
1711523597816216600,2.931216552734375,0.7062410116195679,-0.24990500509738922,-0.5453770160675049
1711523597825862400,2.9408623046875,0.5517690181732178,-0.34650999307632446,-0.4506489932537079
1711523597835508200,2.95050830078125,0.4278720021247864,-0.38934001326560974,-0.4193800091743469
1711523597845154300,2.960154296875,0.23385900259017944,-0.3456229865550995,-0.41543999314308167
1711523597854800000,2.9697998046875,0.0016459999606013298,-0.3938489854335785,-0.3408379852771759
1711523597864445700,2.97944580078125,-0.11055400222539902,-0.41709399223327637,-0.3291740119457245
1711523597874091500,2.989091552734375,-0.05678899958729744,-0.43736299872398376,-0.4226740002632141
1711523597883737300,2.9987373046875,0.06279300153255463,-0.3923409879207611,-0.5658450126647949
1711523597893383200,3.008383056640625,-0.006004999857395887,-0.44009798765182495,-0.6647279858589172
1711523597903028700,3.01802880859375,-0.10447400063276291,-0.4863409996032715,-0.6411870121955872
1711523597912674800,3.0276748046875,-0.2004310041666031,-0.5210220217704773,-0.6842100024223328
1711523597922320600,3.037320556640625,-0.32631799578666687,-0.547872006893158,-0.6700199842453003
1711523597931966200,3.04696630859375,-0.38189399242401123,-0.6584429740905762,-0.6706470251083374
1711523597941612000,3.056612060546875,-0.44030898809432983,-0.6180459856987,-0.6673169732093811
1711523597951257900,3.0662578125,-0.30582699179649353,-0.6101300120353699,-0.6230660080909729
1711523597960904000,3.075904052734375,0.031199999153614044,-0.5132139921188354,-0.6071919798851013
1711523597970549800,3.0855498046875,0.35646000504493713,-0.4471000134944916,-0.6238669753074646
1711523597980195300,3.0951953125,0.6405569911003113,-0.34943699836730957,-0.5001689791679382
1711523597989841000,3.1048408203125,0.653734028339386,-0.22618800401687622,-0.36012598872184753
1711523597999487000,3.114487060546875,0.5988379716873169,-0.15483799576759338,-0.12027399986982346
1711523598009132800,3.1241328125,0.35423699021339417,-0.16922800242900848,0.09893400222063065
1711523598018778600,3.133778564453125,0.13601399958133698,-0.12612800300121307,0.21727299690246582
1711523598028424200,3.143424072265625,0.05501699820160866,-0.039673998951911926,0.22115500271320343
1711523598038070300,3.1530703125,-0.08083099871873856,-0.023527000099420547,0.1553020030260086
1711523598047715800,3.1627158203125,-0.17544099688529968,0.05722099915146828,0.011114999651908875
1711523598057361700,3.172361572265625,-0.36428698897361755,0.11224699765443802,-0.1266150027513504
1711523598067007500,3.182007568359375,-0.6494079828262329,0.12076699733734131,-0.19539399445056915
1711523598076653300,3.1916533203125,-0.9742850065231323,0.10559400171041489,-0.14610899984836578
1711523598086299100,3.201299072265625,-1.2328510284423828,-0.05451599881052971,0.06624399870634079
1711523598095945000,3.210945068359375,-1.370553970336914,-0.15740999579429626,0.24631500244140625
1711523598105590800,3.2205908203125,-1.24971604347229,-0.27758800983428955,0.37463700771331787
1711523598115236400,3.230236328125,-0.8593019843101501,-0.3365919888019562,0.38481101393699646
1711523598124882200,3.239882080078125,-0.2903690040111542,-0.4309529960155487,0.3021849989891052
1711523598134528000,3.249528076171875,0.22213299572467804,-0.4766699969768524,0.17608599364757538
1711523598144173800,3.259173828125,0.8052129745483398,-0.38962501287460327,-0.001361000002361834
1711523598153819600,3.268819580078125,1.0884209871292114,-0.34356099367141724,-0.13827799260616302
1711523598163465500,3.278465576171875,1.141827940940857,-0.3304379880428314,-0.18324999511241913
1711523598173111300,3.288111328125,0.950111985206604,-0.29805299639701843,-0.17694400250911713
1711523598182757400,3.29775732421875,0.6096739768981934,-0.241007000207901,-0.15445899963378906
1711523598192403200,3.3074033203125,0.1604669988155365,-0.11718399822711945,-0.18035200238227844
1711523598202049000,3.317049072265625,-0.2885909974575043,0.009103000164031982,-0.2485080063343048
1711523598211694800,3.32669482421875,-0.6684820055961609,0.13549700379371643,-0.31008100509643555
1711523598221340700,3.336340576171875,-0.9676520228385925,0.28786399960517883,-0.338238000869751
1711523598230986500,3.345986572265625,-1.1151599884033203,0.32029199600219727,-0.29993000626564026
1711523598240632000,3.355632080078125,-1.1828320026397705,0.368710994720459,-0.267892986536026
1711523598250278000,3.36527783203125,-1.2212660312652588,0.40188100934028625,-0.2049490064382553
1711523598259923700,3.374923828125,-1.1939990520477295,0.4041849970817566,-0.11813600361347198
1711523598269569500,3.384569580078125,-1.0700409412384033,0.38184601068496704,-0.03115900047123432
1711523598279215400,3.39421533203125,-0.9346050024032593,0.36727699637413025,0.06183899939060211
1711523598288861000,3.40386083984375,-0.7435899972915649,0.3570750057697296,0.06770999729633331
1711523598298506800,3.4135068359375,-0.4722610116004944,0.3880099952220917,0.03582900017499924
1711523598308152600,3.423152587890625,-0.3084700107574463,0.3808000087738037,-0.04736199975013733
1711523598317798400,3.43279833984375,-0.268669992685318,0.4525279998779297,-0.16124899685382843
1711523598327444200,3.4424443359375,-0.2268110066652298,0.4656589925289154,-0.16625800728797913
1711523598337090000,3.452090087890625,-0.21402500569820404,0.5084360241889954,-0.152878999710083
1711523598346735900,3.46173583984375,-0.15832200646400452,0.5696650147438049,-0.06682699918746948
1711523598356381700,3.471381591796875,-0.05019199848175049,0.5856429934501648,0.015723999589681625
1711523598366027300,3.48102734375,0.15534700453281403,0.6577190160751343,0.028568999841809273
1711523598375673300,3.49067333984375,0.27720698714256287,0.7129539847373962,0.04420199990272522
1711523598385319200,3.500319091796875,0.2650969922542572,0.7111250162124634,0.08179400116205215
1711523598394965000,3.509965087890625,0.31908300518989563,0.7622259855270386,0.0436679981648922
1711523598404610800,3.51961083984375,0.37573501467704773,0.780771017074585,-0.020987000316381454
1711523598414256600,3.529256591796875,0.3890179991722107,0.7737879753112793,0.00812700018286705
1711523598423902500,3.53890234375,0.5001710057258606,0.7379720211029053,-0.018459999933838844
1711523598433548300,3.54854833984375,0.5544310212135315,0.713657021522522,-0.019749000668525696
1711523598443194000,3.558194091796875,0.6248610019683838,0.7042289972305298,-0.06117299944162369
1711523598452840000,3.56783984375,0.692861020565033,0.6764339804649353,-0.03861600160598755
1711523598462485800,3.57748583984375,0.8175050020217896,0.6296650171279907,-0.031165000051259995
1711523598472131600,3.587131591796875,0.8447719812393188,0.6675500273704529,-0.037498001009225845
1711523598481777400,3.59677734375,0.9015640020370483,0.5665420293807983,-0.06607700139284134
1711523598491423200,3.60642333984375,0.902072012424469,0.5725190043449402,-0.09518399834632874
1711523598501069000,3.616069091796875,0.8910599946975708,0.5115349888801575,-0.1066489964723587
1711523598510714600,3.625714599609375,0.9462069869041443,0.4195280075073242,-0.13871100544929504
1711523598520360700,3.635360595703125,1.057600975036621,0.43070700764656067,-0.2182759940624237
1711523598530006500,3.645006591796875,1.0992310047149658,0.4312030076980591,-0.229544997215271
1711523598539652400,3.65465234375,1.088502049446106,0.39794400334358215,-0.2673420011997223
1711523598549298000,3.6642978515625,1.1174949407577515,0.48506399989128113,-0.39567500352859497
1711523598558943700,3.67394384765625,1.013105034828186,0.43903300166130066,-0.31307101249694824
1711523598568589600,3.683589599609375,0.7572730183601379,0.21752199530601501,-0.09395600110292435
1711523598578235400,3.6932353515625,0.5559409856796265,0.10388100147247314,0.050296999514102936
1711523598587881200,3.702881103515625,0.36787399649620056,0.04981999844312668,0.019664999097585678
1711523598597527000,3.712527099609375,0.28849899768829346,0.02738800086081028,-0.06120099872350693
1711523598607172900,3.7221728515625,0.42670899629592896,-0.005183999892324209,-0.21095700562000275
1711523598616818700,3.731818603515625,0.5368239879608154,-0.11980099976062775,-0.25969401001930237
1711523598626464300,3.74146435546875,0.579721987247467,-0.42221900820732117,-0.12819300591945648
1711523598636110300,3.7511103515625,0.6053760051727295,-0.512660026550293,-0.10115700215101242
1711523598645756200,3.760756103515625,0.566349983215332,-0.5687119960784912,-0.16311100125312805
1711523598655402000,3.770402099609375,0.48356500267982483,-0.4853479862213135,-0.24079099297523499
1711523598665047800,3.7800478515625,0.29471901059150696,-0.5151450037956238,-0.2516930103302002
1711523598674693600,3.789693603515625,0.14288699626922607,-0.5761190056800842,-0.09533999860286713
1711523598684339500,3.79933935546875,0.08976799994707108,-0.6703799962997437,-0.026732999831438065
1711523598693985300,3.8089853515625,0.05886499956250191,-0.704770028591156,0.02537900023162365
1711523598703631000,3.818631103515625,0.18213799595832825,-0.8210200071334839,0.13220800459384918
1711523598713277000,3.82827685546875,0.19034899771213531,-0.8549230098724365,0.1447020024061203
1711523598722922800,3.8379228515625,0.21773600578308105,-0.9267280101776123,0.2058809995651245
1711523598732568300,3.847568359375,0.13040299713611603,-0.90277498960495,0.22769999504089355
1711523598742214400,3.85721435546875,-0.005324000027030706,-0.9213330149650574,0.2823159992694855
1711523598751860200,3.866860107421875,-0.1600240021944046,-0.8738030195236206,0.33555299043655396
1711523598761506000,3.876506103515625,-0.2409379929304123,-0.8109650015830994,0.3467620015144348
1711523598771152000,3.88615185546875,-0.2577019929885864,-0.6667640209197998,0.25188401341438293
1711523598780797700,3.895797607421875,-0.24324999749660492,-0.6017900109291077,0.2562650144100189
1711523598790443500,3.905443603515625,-0.23244699835777283,-0.5813729763031006,0.23287099599838257
1711523598800089300,3.91508935546875,-0.2047940045595169,-0.6205599904060364,0.26325100660324097
1711523598809735200,3.924735107421875,-0.2220820039510727,-0.6576849818229675,0.24950100481510162
1711523598819381000,3.934381103515625,-0.2220589965581894,-0.7470129728317261,0.2503649890422821
1711523598829026800,3.94402685546875,-0.2397889941930771,-0.7741609811782837,0.23851299285888672
1711523598838672600,3.953672607421875,-0.19872599840164185,-0.7948570251464844,0.1345899999141693
1711523598848318200,3.963318115234375,-0.20122599601745605,-0.6805089712142944,0.04552600160241127
1711523598857964000,3.972964111328125,-0.18692700564861298,-0.663657009601593,0.06763000041246414
1711523598867609900,3.98260986328125,-0.25701600313186646,-0.610634982585907,0.0819299966096878
1711523598877255700,3.992255615234375,-0.40632298588752747,-0.5542550086975098,0.20542199909687042
1711523598886901800,4.00190185546875,-0.5721799731254578,-0.4955660104751587,0.33117398619651794
1711523598896547600,4.011547607421875,-0.6945819854736328,-0.49250200390815735,0.5029000043869019
1711523598906193200,4.021193115234375,-0.7792569994926453,-0.42173001170158386,0.5430870056152344
1711523598915839000,4.0308388671875,-0.7794399857521057,-0.33230099081993103,0.5491549968719482
1711523598925485000,4.040485107421875,-0.6725720167160034,-0.2291570007801056,0.45880499482154846
1711523598935131000,4.050130859375,-0.5503820180892944,-0.05482799932360649,0.2864289879798889
1711523598944776700,4.059776611328125,-0.4146080017089844,0.032515998929739,0.16055899858474731
1711523598954422500,4.069422607421875,-0.30591198801994324,0.05453899875283241,0.12389600276947021
1711523598964068000,4.079068115234375,-0.2921620011329651,0.12023799866437912,0.04232800006866455
1711523598973714000,4.0887138671875,-0.36050501465797424,0.06993100047111511,0.041662998497486115
1711523598983359700,4.09835986328125,-0.4693939983844757,0.06697999686002731,0.012493000365793705
1711523598993005600,4.108005615234375,-0.5649949908256531,0.05577399954199791,0.06363900005817413
1711523599002651400,4.1176513671875,-0.5924059748649597,0.06638599932193756,0.08260300010442734
1711523599012297200,4.127297119140625,-0.6064310073852539,0.0305160004645586,0.10605400055646896
1711523599021943000,4.136943115234375,-0.606939971446991,0.02015399932861328,0.13795100152492523
1711523599031588900,4.1465888671875,-0.620872974395752,0.041753001511096954,0.12668399512767792
1711523599041234700,4.156234619140625,-0.5936440229415894,0.07158000022172928,0.0752749964594841
1711523599050880500,4.165880615234375,-0.5530350208282471,0.1238579973578453,0.11049400269985199
1711523599060526300,4.1755263671875,-0.4581589996814728,0.051440998911857605,0.1372770071029663
1711523599070172400,4.18517236328125,-0.2816140055656433,0.012927000410854816,0.1158130019903183
1711523599079818200,4.194818359375,-0.13259799778461456,-0.010476999916136265,0.07445000112056732
1711523599089463800,4.2044638671875,-0.03786500170826912,-0.008058000355958939,0.0629739984869957
1711523599099109600,4.214109619140625,-0.03871599957346916,-0.020177999511361122,0.1119299978017807
1711523599108755500,4.22375537109375,-0.039145998656749725,0.018955999985337257,0.15407399833202362
1711523599118401300,4.2334013671875,-0.12124799937009811,0.09012100100517273,0.1474349945783615
1711523599128047000,4.243047119140625,-0.18943999707698822,0.13828299939632416,0.17971600592136383
1711523599137693000,4.25269287109375,-0.23041099309921265,0.14803099632263184,0.21386300027370453
1711523599147338800,4.2623388671875,-0.2985199987888336,0.20871900022029877,0.2743610143661499
1711523599156984600,4.271984619140625,-0.31217798590660095,0.22691699862480164,0.25064998865127563
1711523599166630400,4.28163037109375,-0.31229498982429504,0.2471189945936203,0.28154700994491577
1711523599176276200,4.291276123046875,-0.3126260042190552,0.2511749863624573,0.3171969950199127
1711523599185922300,4.30092236328125,-0.29941099882125854,0.31396299600601196,0.32864901423454285
1711523599195568000,4.310568115234375,-0.2587139904499054,0.35409998893737793,0.2943029999732971
1711523599205214000,4.3202138671875,-0.2182610034942627,0.4448170065879822,0.26559799909591675
1711523599214859800,4.32985986328125,-0.16332000494003296,0.46424600481987,0.22613799571990967
1711523599224505300,4.33950537109375,-0.08177900314331055,0.49876099824905396,0.1752600073814392
1711523599234151200,4.349151123046875,-0.05352700129151344,0.5268710255622864,0.1313440054655075
1711523599243797000,4.358796875,0.02806200087070465,0.5734360218048096,0.16204200685024261
1711523599253442800,4.36844287109375,0.07046899944543839,0.6868169903755188,0.050390999764204025
1711523599263088600,4.378088623046875,0.07019899785518646,0.8006510138511658,0.00824199989438057
1711523599272734500,4.387734375,0.1268409937620163,0.8102710247039795,0.007745000068098307
1711523599282380300,4.39738037109375,0.2085060030221939,0.8944140076637268,-0.003855000017210841
1711523599292026400,4.4070263671875,0.3066200017929077,0.9107379913330078,0.037477001547813416
1711523599301672200,4.416672119140625,0.3748680055141449,0.883001983165741,0.10914699733257294
1711523599311318000,4.426318115234375,0.377687007188797,0.8859019875526428,0.11669100075960159
1711523599320963800,4.4359638671875,0.40500301122665405,0.8297460079193115,0.14309699833393097
1711523599330609700,4.445609619140625,0.4341999888420105,0.6825180053710938,0.1693750023841858
1711523599340255500,4.45525537109375,0.48851099610328674,0.6004490256309509,0.12224499881267548
1711523599349901300,4.4649013671875,0.6260280013084412,0.49367600679397583,0.05594399943947792
1711523599359547100,4.474547119140625,0.6393929719924927,0.41166698932647705,0.04641000181436539
1711523599369193000,4.48419287109375,0.6536779999732971,0.30128398537635803,0.04678500071167946
1711523599378838500,4.493838623046875,0.6672880053520203,0.24421000480651855,-0.028516000136733055
1711523599388484400,4.503484375,0.641061007976532,0.22929899394512177,-0.057137999683618546
1711523599398130200,4.513130126953125,0.5324320197105408,0.2511569857597351,-0.07275299727916718
1711523599407776000,4.52277587890625,0.3705979883670807,0.28460198640823364,-0.05617300048470497
1711523599417422000,4.532422119140625,0.3165479898452759,0.34796398878097534,-0.039563000202178955
1711523599427068200,4.542068115234375,0.3463819921016693,0.4683150053024292,-0.13554799556732178
1711523599436714000,4.5517138671875,0.4148400127887726,0.6027740240097046,-0.23675699532032013
1711523599446359600,4.561359619140625,0.5813000202178955,0.5579850077629089,-0.1639070063829422
1711523599456005400,4.57100537109375,0.7043889760971069,0.45964598655700684,0.00798999983817339
1711523599465651200,4.580651123046875,0.7192959785461426,0.3715609908103943,0.18714700639247894
1711523599475297000,4.590297119140625,0.705702006816864,0.3416619896888733,0.2895750105381012
1711523599484942800,4.59994287109375,0.6926699876785278,0.3372420072555542,0.35146498680114746
1711523599494588700,4.609588623046875,0.8423500061035156,0.307543009519577,0.36478498578071594
1711523599504234500,4.619234375,0.8974930047988892,0.30480799078941345,0.3049739897251129
1711523599513880300,4.62888037109375,0.9250329732894897,0.17562000453472137,0.33240699768066406
1711523599523526100,4.638526123046875,0.7754089832305908,0.08452700078487396,0.36616501212120056
1711523599533172000,4.648171875,0.6536099910736084,-0.048764001578092575,0.3688809871673584
1711523599542817800,4.65781787109375,0.4488990008831024,-0.15688499808311462,0.277648001909256
1711523599552464000,4.6674638671875,0.42264899611473083,-0.2907389998435974,0.16646400094032288
1711523599562109700,4.677109619140625,0.3944210112094879,-0.32051700353622437,-0.009374000132083893
1711523599571755500,4.686755615234375,0.39520499110221863,-0.3429509997367859,-0.18749499320983887
1711523599581401300,4.6964013671875,0.3530980050563812,-0.35455501079559326,-0.25717300176620483
1711523599591047000,4.706046875,0.31261101365089417,-0.4414440095424652,-0.26355698704719543
1711523599600692700,4.715692626953125,0.37850698828697205,-0.4557099938392639,-0.30750399827957153
1711523599610338800,4.7253388671875,0.46020299196243286,-0.42899298667907715,-0.3670479953289032
1711523599619984600,4.734984619140625,0.5940960049629211,-0.49385198950767517,-0.3199859857559204
1711523599629630200,4.744630126953125,0.7580090165138245,-0.565805971622467,-0.3248479962348938
1711523599639276000,4.754276123046875,0.7837849855422974,-0.5270640254020691,-0.3731429874897003
1711523599648921900,4.763921875,0.7443810105323792,-0.5138630270957947,-0.44069600105285645
1711523599658567700,4.773567626953125,0.5399019718170166,-0.514847993850708,-0.431210994720459
1711523599668213800,4.7832138671875,0.256087988615036,-0.5525069832801819,-0.42302700877189636
1711523599677859600,4.792859619140625,-0.01638600043952465,-0.5572519898414612,-0.35767099261283875
1711523599687505400,4.80250537109375,-0.24593600630760193,-0.6495429873466492,-0.3868260085582733
1711523599697151200,4.812151123046875,-0.4513680040836334,-0.7090529799461365,-0.4160259962081909
1711523599706797000,4.821797119140625,-0.5452629923820496,-0.8356620073318481,-0.5400959849357605
1711523599716443000,4.83144287109375,-0.6152009963989258,-0.8506249785423279,-0.6188259720802307
1711523599726088700,4.841088623046875,-0.6552990078926086,-0.9677960276603699,-0.670773983001709
1711523599735734500,4.850734619140625,-0.6853899955749512,-0.9650530219078064,-0.6264179944992065
1711523599745380400,4.86038037109375,-0.6719650030136108,-0.9895150065422058,-0.5987570285797119
1711523599755026200,4.870026123046875,-0.6067630052566528,-0.873786985874176,-0.534367024898529
1711523599764672000,4.879672119140625,-0.4439760148525238,-0.7807030081748962,-0.5178319811820984
1711523599774317800,4.88931787109375,-0.25479501485824585,-0.59620201587677,-0.49491098523139954
1711523599783963600,4.898963623046875,-0.13266199827194214,-0.5154240131378174,-0.324290007352829
1711523599793609200,4.908609130859375,-0.07964500039815903,-0.4372110068798065,-0.1448269933462143
1711523599803255300,4.91825537109375,-0.12065599858760834,-0.3458169996738434,-0.01418600045144558
1711523599812901000,4.927901123046875,-0.1901489943265915,-0.28076300024986267,0.12151599675416946
1711523599822547000,4.937546875,-0.25822800397872925,-0.2335589975118637,0.15590199828147888
1711523599832193000,4.947193115234375,-0.300121009349823,-0.21570700407028198,0.154462993144989
1711523599841838600,4.956838623046875,-0.3273339867591858,-0.264849990606308,0.1194780021905899
1711523599851484700,4.966484619140625,-0.34183400869369507,-0.2822299897670746,-0.010720999911427498
1711523599861130200,4.976130126953125,-0.3149479925632477,-0.3015339970588684,-0.13261300325393677
1711523599870776000,4.985776123046875,-0.3154650032520294,-0.27612701058387756,-0.18785899877548218
1711523599880422100,4.995422119140625,-0.3294149935245514,-0.25351598858833313,-0.22721700370311737
1711523599890068000,5.00506787109375,-0.3969320058822632,-0.1687150001525879,-0.2307009994983673
1711523599899713500,5.014713623046875,-0.43714699149131775,-0.04021099954843521,-0.17428700625896454
1711523599909359400,5.024359375,-0.5446010231971741,0.015310999937355518,-0.0394509993493557
1711523599919005400,5.03400537109375,-0.624891996383667,0.046702999621629715,0.2041119933128357
1711523599928651000,5.043651123046875,-0.6521729826927185,0.03553599864244461,0.36853501200675964
1711523599938297000,5.053297119140625,-0.5696449875831604,0.14157000184059143,0.4150190055370331
1711523599947943000,5.06294287109375,-0.4607999920845032,0.15681500732898712,0.2916580140590668
1711523599957588700,5.072588623046875,-0.36504700779914856,0.19773299992084503,0.18349100649356842
1711523599967234600,5.082234619140625,-0.29622599482536316,0.15776300430297852,0.09922999888658524
1711523599976880400,5.09188037109375,-0.26817598938941956,0.19307999312877655,0.033716000616550446
1711523599986526200,5.101526123046875,-0.375465989112854,0.18444299697875977,-0.015685999765992165
1711523599996172000,5.111172119140625,-0.4970160126686096,0.2670780122280121,-0.02826699987053871
1711523600005817900,5.12081787109375,-0.685545027256012,0.2989160120487213,-0.011744000017642975
1711523600015463700,5.130463623046875,-0.8617740273475647,0.3262439966201782,0.053780000656843185
1711523600025109500,5.140109619140625,-0.9554910063743591,0.3310549855232239,0.08957500010728836
1711523600034755300,5.14975537109375,-0.9550790190696716,0.4065299928188324,0.0853860005736351
1711523600044401400,5.1594013671875,-0.8179479837417603,0.3644219934940338,0.14331699907779694
1711523600054047000,5.169046875,-0.6545230150222778,0.3665420114994049,0.12459900230169296
1711523600063692800,5.17869287109375,-0.43561500310897827,0.3982659876346588,0.0637660026550293
1711523600073339000,5.1883388671875,-0.25852200388908386,0.4293600022792816,0.05987299978733063
1711523600082984700,5.197984619140625,-0.12132199853658676,0.40625399351119995,0.053435999900102615
1711523600092630500,5.207630615234375,-0.09383100271224976,0.4332610070705414,0.0225210003554821
1711523600102276400,5.2172763671875,-0.03785699978470802,0.4178310036659241,-0.008414000272750854
1711523600111922200,5.226922119140625,-0.13291800022125244,0.5205720067024231,-0.06939200311899185
1711523600121568000,5.236568115234375,-0.25271299481391907,0.5947290062904358,-0.10950999706983566
1711523600131213800,5.2462138671875,-0.4429900050163269,0.6366940140724182,-0.09060399979352951
1711523600140859600,5.255859619140625,-0.5896070003509521,0.6729670166969299,-0.06567200273275375
1711523600150505700,5.265505615234375,-0.6711869835853577,0.7563560009002686,-0.10394799709320068
1711523600160151600,5.275151611328125,-0.7352129817008972,0.7878010272979736,-0.15653899312019348
1711523600169797400,5.28479736328125,-0.7492129802703857,0.8229699730873108,-0.2511979937553406
1711523600179443000,5.29444287109375,-0.48618799448013306,0.7581319808959961,-0.29644399881362915
1711523600189088800,5.3040888671875,-0.14649799466133118,0.7593520283699036,-0.4185180068016052
1711523600198734600,5.313734619140625,0.1433040052652359,0.7318609952926636,-0.4227989912033081
1711523600208380400,5.32338037109375,0.45552700757980347,0.7445549964904785,-0.3849549889564514
1711523600218026500,5.333026611328125,0.5397220253944397,0.7528010010719299,-0.27085500955581665
1711523600227672000,5.342672119140625,0.6067569851875305,0.7429429888725281,-0.1298079937696457
1711523600237318100,5.352318115234375,0.6077799797058105,0.7176920175552368,0.017916999757289886
1711523600246963700,5.361963623046875,0.6614890098571777,0.7143189907073975,0.1024480015039444
1711523600256609500,5.371609619140625,0.6624370217323303,0.6347740292549133,0.07006300240755081
1711523600266255600,5.381255615234375,0.7299579977989197,0.5869150161743164,0.09883599728345871
1711523600275901200,5.390901123046875,0.7715039849281311,0.5389059782028198,0.050728000700473785
1711523600285547000,5.400547119140625,0.7979480028152466,0.5717620253562927,0.02075199969112873
1711523600295193000,5.410193115234375,0.8802890181541443,0.5123699903488159,-0.0015569999814033508
1711523600304839000,5.4198388671875,0.9063990116119385,0.6283270120620728,-0.15813200175762177
1711523600314484700,5.429484619140625,1.0182069540023804,0.7358540296554565,-0.2883389890193939
1711523600324130800,5.439130859375,1.1262520551681519,0.7982829809188843,-0.4014450013637543
1711523600333776600,5.448776611328125,1.2801439762115479,0.8234949707984924,-0.4650219976902008
1711523600343422200,5.458422119140625,1.402282953262329,0.7633739709854126,-0.42277199029922485
1711523600353068000,5.468068115234375,1.5279430150985718,0.6887829899787903,-0.3410309851169586
1711523600362713900,5.4777138671875,1.6775530576705933,0.6689720153808594,-0.28328099846839905
1711523600372359700,5.487359619140625,1.883234977722168,0.484046995639801,-0.18303699791431427
1711523600382005800,5.497005859375,1.9786499738693237,0.12088900059461594,0.05142499879002571
1711523600391651600,5.506651611328125,1.9483870267868042,-0.19503800570964813,0.10596700012683868
1711523600401297400,5.51629736328125,1.9072840213775635,-0.3294140100479126,-0.07713200151920319
1711523600410943200,5.525943115234375,1.8231600522994995,-0.4085119962692261,-0.2937839925289154
1711523600420589000,5.535589111328125,1.6870360374450684,-0.5621010065078735,-0.4266499876976013
1711523600430235100,5.545235107421875,1.5082809925079346,-0.5851590037345886,-0.5080909729003906
1711523600439880700,5.554880615234375,1.1417540311813354,-0.4744180142879486,-0.5408400297164917
1711523600449526500,5.564526611328125,0.6654629707336426,-0.40879398584365845,-0.36095499992370605
1711523600459172400,5.57417236328125,0.3132680058479309,-0.3957259953022003,-0.10169199854135513
1711523600468818200,5.583818115234375,0.12120400369167328,-0.3937709927558899,0.06969700008630753
1711523600478464000,5.593464111328125,0.1764490008354187,-0.45041799545288086,0.1918559968471527
1711523600488109800,5.60310986328125,0.37673500180244446,-0.5097209811210632,0.2429399937391281
1711523600497755600,5.612755615234375,0.6081539988517761,-0.5580490231513977,0.2269980013370514
1711523600507401500,5.6224013671875,0.781466007232666,-0.5327270030975342,0.1218309998512268
1711523600517047600,5.632047607421875,0.9049230217933655,-0.5478969812393188,-0.012981999665498734
1711523600526693400,5.641693359375,0.8085560202598572,-0.4860770106315613,-0.0734110027551651
1711523600536339200,5.651339111328125,0.5392640233039856,-0.6703270077705383,0.055768001824617386
1711523600545985000,5.660985107421875,0.060290999710559845,-0.8227199912071228,0.19546499848365784
1711523600555630800,5.670630859375,-0.45381999015808105,-0.932138979434967,0.2867560088634491
1711523600565276700,5.680276611328125,-0.893572986125946,-0.9652429819107056,0.27496999502182007
1711523600574922500,5.689922607421875,-1.2456200122833252,-1.0087709426879883,0.24829499423503876
1711523600584568300,5.699568359375,-1.359902024269104,-0.9566149711608887,0.1851779967546463
1711523600594214100,5.709214111328125,-1.319012999534607,-0.9507949948310852,0.06650400161743164
1711523600603860000,5.71885986328125,-1.161296010017395,-0.8947790265083313,-0.11414700001478195
1711523600613506000,5.728506103515625,-0.917339026927948,-0.8301140069961548,-0.20302699506282806
1711523600623151900,5.73815185546875,-0.6638039946556091,-0.781561017036438,-0.22708700597286224
1711523600632798000,5.7477978515625,-0.42002400755882263,-0.8185930252075195,-0.11309199780225754
1711523600642443500,5.757443603515625,-0.23463000357151031,-0.7932019829750061,-0.0492280013859272
1711523600652089600,5.767089599609375,-0.045090001076459885,-0.8315320014953613,0.11868499964475632
1711523600661735400,5.7767353515625,0.08583900332450867,-0.7969020009040833,0.2385289967060089
1711523600671381200,5.78638134765625,0.20755800604820251,-0.7337859869003296,0.27208399772644043
1711523600681026800,5.79602685546875,0.14916500449180603,-0.6772210001945496,0.26973798871040344
1711523600690672600,5.805672607421875,-0.09612499922513962,-0.6006760001182556,0.22550800442695618
1711523600700318700,5.815318603515625,-0.493257999420166,-0.5260260105133057,0.20855599641799927
1711523600709964300,5.82496435546875,-0.9149720072746277,-0.44426700472831726,0.16440600156784058
1711523600719610400,5.8346103515625,-1.2150089740753174,-0.30628299713134766,0.02942899987101555
1711523600729256200,5.844256103515625,-1.3779070377349854,-0.2075279951095581,-0.07305800169706345
1711523600738902000,5.853902099609375,-1.4042589664459229,-0.06736599653959274,-0.13054700195789337
1711523600748547800,5.8635478515625,-1.4039920568466187,-0.002114000031724572,-0.04565500095486641
1711523600758193700,5.873193603515625,-1.3356809616088867,-0.02021699957549572,0.15374399721622467
1711523600767839500,5.882839599609375,-1.1315749883651733,0.011514999903738499,0.281686007976532
1711523600777485300,5.8924853515625,-0.9278309941291809,0.02609100006520748,0.40756699442863464
1711523600787131100,5.902131103515625,-0.7785750031471252,0.02086699940264225,0.5036090016365051
1711523600796777200,5.911777099609375,-0.6838480234146118,0.07593599706888199,0.47135698795318604
1711523600806422800,5.9214228515625,-0.5755860209465027,0.09874700009822845,0.439503014087677
1711523600816068600,5.931068603515625,-0.6030449867248535,0.12393499910831451,0.3193950057029724
1711523600825714400,5.94071435546875,-0.6445059776306152,0.15952900052070618,0.16687099635601044
1711523600835360300,5.9503603515625,-0.7117339968681335,0.24282200634479523,-0.005917999893426895
1711523600845006300,5.96000634765625,-0.7665809988975525,0.3178560137748718,-0.107123002409935
1711523600854652200,5.969652099609375,-0.8329730033874512,0.33846598863601685,-0.09986700117588043
1711523600864298200,5.97929833984375,-0.8739969730377197,0.4814009964466095,-0.05487700179219246
1711523600873943800,5.98894384765625,-0.7761859893798828,0.5052189826965332,0.06997200101613998
1711523600883590000,5.99858984375,-0.6673489809036255,0.5535500049591064,0.21245700120925903
1711523600893235700,6.008235595703125,-0.6512809991836548,0.5749459862709045,0.2680639922618866
1711523600902881500,6.017881591796875,-0.6241700053215027,0.6367430090904236,0.3679960072040558
1711523600912527400,6.02752734375,-0.5946099758148193,0.5895289778709412,0.4262009859085083
1711523600922173200,6.037173095703125,-0.6085249781608582,0.556896984577179,0.46798399090766907
1711523600931819000,6.046819091796875,-0.5798389911651611,0.478769987821579,0.45087501406669617
1711523600941464800,6.05646484375,-0.539726972579956,0.4497550129890442,0.4043799936771393
1711523600951110400,6.0661103515625,-0.47100698947906494,0.38252899050712585,0.37351199984550476
1711523600960756500,6.075756591796875,-0.4993390142917633,0.316195011138916,0.33805298805236816
1711523600970402600,6.085402587890625,-0.4992679953575134,0.2725430130958557,0.23600299656391144
1711523600980048400,6.09504833984375,-0.5277119874954224,0.2227569967508316,0.17742499709129333
1711523600989694000,6.10469384765625,-0.5687119960784912,0.21228499710559845,0.12734900414943695
1711523600999339800,6.11433984375,-0.6517149806022644,0.20626699924468994,0.09954000264406204
1711523601008985600,6.123985595703125,-0.733726978302002,0.212117001414299,0.13248200714588165
1711523601018631400,6.13363134765625,-0.6945000290870667,0.2663779854774475,0.21249499917030334
1711523601028277500,6.143277587890625,-0.5181000232696533,0.3275560140609741,0.25928398966789246
1711523601037923300,6.15292333984375,-0.2614549994468689,0.41561999917030334,0.31915199756622314
1711523601047569200,6.162569091796875,0.06479600071907043,0.5143349766731262,0.3160960078239441
1711523601057215000,6.172215087890625,0.4031830132007599,0.6024940013885498,0.31753799319267273
1711523601066860800,6.18186083984375,0.6480110287666321,0.6011409759521484,0.3265340030193329
1711523601076507000,6.1915068359375,0.8371059894561768,0.6137419939041138,0.3271229863166809
1711523601086152700,6.201152587890625,0.8918780088424683,0.643028974533081,0.32156699895858765
1711523601095798500,6.210798583984375,0.9044569730758667,0.6193090081214905,0.34824898838996887
1711523601105444400,6.2204443359375,0.9866139888763428,0.577692985534668,0.3804289996623993
1711523601115090200,6.230090087890625,1.0404200553894043,0.5482789874076843,0.35384601354599
1711523601124736000,6.239736083984375,1.095620036125183,0.5186319947242737,0.3122999966144562
1711523601134381800,6.2493818359375,1.1498850584030151,0.4423600137233734,0.3190790116786957
1711523601144028000,6.25902783203125,1.2459750175476074,0.40108099579811096,0.25802600383758545
1711523601153673700,6.268673828125,1.2596960067749023,0.3609749972820282,0.21215499937534332
1711523601163319300,6.2783193359375,1.2604470252990723,0.2932190001010895,0.23473800718784332
1711523601172965000,6.287965087890625,1.356300950050354,0.23344600200653076,0.2992039918899536
1711523601182611200,6.297611083984375,1.3980499505996704,0.21756599843502045,0.304984986782074
1711523601192257000,6.307257080078125,1.4128509759902954,0.2026509940624237,0.28857898712158203
1711523601201902800,6.31690283203125,1.3603490591049194,0.2547850012779236,0.23144899308681488
1711523601211548700,6.326548583984375,1.0355069637298584,0.25581300258636475,0.22724999487400055
1711523601221194500,6.336194580078125,0.7657529711723328,0.21855199337005615,0.23404599726200104
1711523601230840300,6.34584033203125,0.5090849995613098,0.2058659940958023,0.19690099358558655
1711523601240486100,6.355486083984375,0.375124990940094,0.18916800618171692,0.19912900030612946
1711523601250132000,6.365132080078125,0.4171830117702484,0.17483900487422943,0.22665899991989136
1711523601259777800,6.37477783203125,0.6630589962005615,0.1093439981341362,0.26815998554229736
1711523601269423600,6.384423583984375,0.9360089898109436,-0.004556000232696533,0.27547401189804077
1711523601279069400,6.3940693359375,1.1533620357513428,-0.0799499973654747,0.21904100477695465
1711523601288715500,6.403715576171875,1.3856370449066162,-0.2221049964427948,0.19088399410247803
1711523601298361300,6.413361328125,1.439242959022522,-0.2653599977493286,0.11339899897575378
1711523601308007200,6.423007080078125,1.3589489459991455,-0.3347240090370178,-0.027904000133275986
1711523601317653000,6.432653076171875,1.1952370405197144,-0.3693169951438904,-0.1780110001564026
1711523601327298800,6.442298828125,0.883903980255127,-0.4601849913597107,-0.31578201055526733
1711523601336944600,6.451944580078125,0.5704470276832581,-0.4800019860267639,-0.4581260085105896
1711523601346590500,6.461590576171875,0.3679260015487671,-0.5704399943351746,-0.6023949980735779
1711523601356236300,6.471236328125,0.2441670000553131,-0.6447659730911255,-0.6281629800796509
1711523601365882000,6.480882080078125,0.09540300071239471,-0.7280089855194092,-0.6527699828147888
1711523601375528000,6.49052783203125,-0.002400000113993883,-0.7596930265426636,-0.6388980150222778
1711523601385174000,6.500174072265625,-0.08388099819421768,-0.8335509896278381,-0.6075180172920227
1711523601394820000,6.509820068359375,0.022182000800967216,-0.7744770050048828,-0.6163889765739441
1711523601404465700,6.519465576171875,0.15822699666023254,-0.8006619811058044,-0.7142869830131531
1711523601414111500,6.529111572265625,0.31908801198005676,-0.7912920117378235,-0.7119749784469604
1711523601423757300,6.53875732421875,0.41464000940322876,-0.9004160165786743,-0.6651899814605713
1711523601433403100,6.548403076171875,0.42590299248695374,-0.9170309901237488,-0.5444949865341187
1711523601443049200,6.55804931640625,0.35875698924064636,-0.8578789830207825,-0.5087440013885498
1711523601452694800,6.56769482421875,0.18084700405597687,-0.7712630033493042,-0.46075400710105896
1711523601462340900,6.5773408203125,0.005390999838709831,-0.7500690221786499,-0.3457610011100769
1711523601471986700,6.586986572265625,-0.2669849991798401,-0.6406149864196777,-0.2819890081882477
1711523601481632500,6.596632568359375,-0.42819899320602417,-0.6015650033950806,-0.2094220072031021
1711523601491278300,6.6062783203125,-0.6313899755477905,-0.45702099800109863,-0.17991100251674652
1711523601500924200,6.615924072265625,-0.7651810050010681,-0.3397679924964905,-0.27485498785972595
1711523601510570200,6.6255703125,-0.9125189781188965,-0.2777160108089447,-0.2544029951095581
1711523601520216000,6.635216064453125,-0.964460015296936,-0.17399699985980988,-0.24126699566841125
1711523601529862000,6.64486181640625,-1.097417950630188,-0.09651199728250504,-0.16002200543880463
1711523601539507700,6.6545078125,-1.1903669834136963,-0.07064399868249893,-0.03836800158023834
1711523601549153500,6.664153564453125,-1.2966010570526123,-0.05831100046634674,0.006634000223129988
1711523601558799400,6.67379931640625,-1.199347972869873,-0.09104499965906143,-0.01716800034046173
1711523601568445200,6.683445068359375,-1.1428040266036987,-0.07898599654436111,-0.045333001762628555
1711523601578091300,6.69309130859375,-0.9647089838981628,-0.2502230107784271,0.04203199967741966
1711523601587737000,6.702737060546875,-0.8300039768218994,-0.35468199849128723,0.03197399899363518
1711523601597383000,6.7123828125,-0.7623029947280884,-0.4598830044269562,0.05820399895310402
1711523601607028700,6.72202880859375,-0.7796559929847717,-0.4909060001373291,0.0643170028924942
1711523601616674600,6.731674560546875,-0.7814710140228271,-0.4221920073032379,0.039707001298666
1711523601626320400,6.7413203125,-0.9075070023536682,-0.3447589874267578,-0.0353580005466938
1711523601635966200,6.75096630859375,-0.9508739709854126,-0.33404600620269775,-0.08662199974060059
1711523601645612000,6.760612060546875,-0.8032749891281128,-0.19994400441646576,-0.26131200790405273
1711523601655257900,6.7702578125,-0.5879489779472351,-0.08325699716806412,-0.4519079923629761
1711523601664903700,6.779903564453125,-0.32920101284980774,0.018549999222159386,-0.5714470148086548
1711523601674549800,6.7895498046875,-0.05859699845314026,0.23132699728012085,-0.7241899967193604
1711523601684195600,6.799195556640625,0.12066599726676941,0.31143200397491455,-0.6468849778175354
1711523601693841400,6.80884130859375,0.2014089971780777,0.4046329855918884,-0.5418879985809326
1711523601703487200,6.8184873046875,0.12127400189638138,0.4260059893131256,-0.29125601053237915
1711523601713133000,6.828133056640625,-0.002454000059515238,0.5229060053825378,-0.13107100129127502
1711523601722779100,6.837779052734375,-0.0829790011048317,0.5923489928245544,-0.04214100167155266
1711523601732425000,6.847425048828125,-0.23403899371623993,0.6278749704360962,0.028351999819278717
1711523601742070800,6.85707080078125,-0.36942800879478455,0.5440890192985535,0.10650700330734253
1711523601751716600,6.866716552734375,-0.5611209869384766,0.5364829897880554,0.1644739955663681
1711523601761362400,6.876362548828125,-0.6283770203590393,0.4949910044670105,0.16109700500965118
1711523601771008300,6.88600830078125,-0.6430619955062866,0.46337398886680603,0.11260300129652023
1711523601780653800,6.89565380859375,-0.6284499764442444,0.43153101205825806,0.012986999936401844
1711523601790300000,6.9052998046875,-0.5480549931526184,0.48799601197242737,-0.10064999759197235
1711523601799945700,6.91494580078125,-0.46463000774383545,0.48693200945854187,-0.197285994887352
1711523601809591800,6.924591796875,-0.2889209985733032,0.49393901228904724,-0.2511090040206909
1711523601819237600,6.934237548828125,-0.1371839940547943,0.4854150116443634,-0.2965019941329956
1711523601828883500,6.943883544921875,0.011646999977529049,0.5613009929656982,-0.2894429862499237
1711523601838529300,6.953529296875,0.16380399465560913,0.5741879940032959,-0.23987799882888794
1711523601848175000,6.963175048828125,0.28591400384902954,0.5906789898872375,-0.18942199647426605
1711523601857821000,6.972821044921875,0.35660600662231445,0.6742680072784424,-0.14822599291801453
1711523601867466800,6.982466796875,0.3834809958934784,0.7105569839477539,-0.07645999640226364
1711523601877112600,6.992112548828125,0.35848501324653625,0.7293710112571716,0.002220999915152788
1711523601886758400,7.00175830078125,0.3034859895706177,0.7460240125656128,0.09292399883270264
1711523601896404500,7.011404541015625,0.31866899132728577,0.6943269968032837,0.1426829993724823
1711523601906050300,7.02105029296875,0.3860909938812256,0.6667900085449219,0.17239899933338165
1711523601915695900,7.03069580078125,0.46903398633003235,0.5920169949531555,0.1367350071668625
1711523601925341700,7.040341796875,0.5776069760322571,0.6146640181541443,0.09693799912929535
1711523601934987800,7.04998779296875,0.6888899803161621,0.6162520051002502,0.0010499999625608325
1711523601944633600,7.059633544921875,0.6075050234794617,0.536637008190155,0.017500000074505806
1711523601954279400,7.069279541015625,0.528984010219574,0.5354800224304199,-0.057509999722242355
1711523601963925200,7.07892529296875,0.4210369884967804,0.5469279885292053,-0.10524299740791321
1711523601973571000,7.088571044921875,0.3293539881706238,0.46515798568725586,-0.09297899901866913
1711523601983217000,7.098216796875,0.16698700189590454,0.4370569884777069,-0.043758001178503036
1711523601992862700,7.10786279296875,0.0606670007109642,0.33749398589134216,0.03064800053834915
1711523602002508800,7.1175087890625,0.15655900537967682,0.2886979877948761,0.0943949967622757
1711523602012154600,7.127154541015625,0.49772700667381287,0.2346400022506714,0.08186399936676025
1711523602021800700,7.13680078125,1.042072057723999,0.13920000195503235,0.004426999948918819
1711523602031446500,7.146446533203125,1.5048869848251343,0.13887199759483337,-0.17876599729061127
1711523602041092400,7.15609228515625,1.682047963142395,0.19905999302864075,-0.31552600860595703
1711523602050738200,7.16573828125,1.7529640197753906,0.324411004781723,-0.49994099140167236
1711523602060384000,7.175384033203125,1.5230779647827148,0.2591170072555542,-0.464150995016098
1711523602070029800,7.18502978515625,1.226773977279663,0.22605499625205994,-0.37360501289367676
1711523602079675600,7.194675537109375,0.9293779730796814,0.210534006357193,-0.31342899799346924
1711523602089321500,7.204321533203125,0.7153499722480774,0.22963400185108185,-0.303272008895874
1711523602098967300,7.21396728515625,0.5812190175056458,0.22015799582004547,-0.3043609857559204
1711523602108613400,7.22361328125,0.5711209774017334,0.22092799842357635,-0.33732500672340393
1711523602118259200,7.23325927734375,0.5180270075798035,0.22119200229644775,-0.38383200764656067
1711523602127905000,7.242905029296875,0.4944689869880676,0.2670449912548065,-0.39026299118995667
1711523602137550800,7.25255078125,0.4957430064678192,0.2445790022611618,-0.2913370132446289
1711523602147196700,7.26219677734375,0.443246990442276,0.15073199570178986,-0.13183699548244476
1711523602156842500,7.271842529296875,0.444132000207901,0.07670100033283234,-0.11547800153493881
1711523602166488300,7.28148828125,0.5127379894256592,0.006616999860852957,-0.11020100116729736
1711523602176134100,7.291134033203125,0.5814890265464783,-0.08213800191879272,-0.08836200088262558
1711523602185780200,7.3007802734375,0.45801299810409546,-0.12113600224256516,-0.020743999630212784
1711523602195426000,7.310426025390625,0.33587899804115295,-0.2543399930000305,0.06742099672555923
1711523602205072000,7.32007177734375,0.14235100150108337,-0.3387030065059662,0.14216400682926178
1711523602214718000,7.329718017578125,0.04736499860882759,-0.43055498600006104,0.19918400049209595
1711523602224363500,7.339363525390625,0.0021269998978823423,-0.5161790251731873,0.2827880084514618
1711523602234009300,7.34900927734375,0.05696199834346771,-0.6319230198860168,0.3215070068836212
1711523602243655200,7.3586552734375,0.1199909970164299,-0.6390969753265381,0.3080480098724365
1711523602253301000,7.368301025390625,0.257068008184433,-0.6459770202636719,0.2813189923763275
1711523602262947000,7.377947021484375,0.22662700712680817,-0.5673040151596069,0.27426499128341675
1711523602272593000,7.387593017578125,0.2018509954214096,-0.5694100260734558,0.42840200662612915
1711523602282239000,7.397239013671875,0.15848100185394287,-0.5931439995765686,0.5511400103569031
1711523602291884800,7.406884765625,-0.028850000351667404,-0.642645001411438,0.6938959956169128
1711523602301530600,7.416530517578125,-0.14093099534511566,-0.6924189925193787,0.733066976070404
1711523602311176200,7.42617626953125,-0.21934999525547028,-0.7977749705314636,0.7868340015411377
1711523602320822000,7.435822021484375,-0.387255996465683,-0.8383240103721619,0.7482420206069946
1711523602330468000,7.445468017578125,-0.5343009829521179,-0.8596680164337158,0.6447950005531311
1711523602340114000,7.455114013671875,-0.715237021446228,-0.7922750115394592,0.4840939939022064
1711523602349759700,7.464759765625,-0.8627690076828003,-0.6868659853935242,0.35555100440979004
1711523602359405600,7.474405517578125,-1.0419360399246216,-0.60213702917099,0.2441670000553131
1711523602369051400,7.484051513671875,-1.1627730131149292,-0.5994700193405151,0.30145901441574097
1711523602378697200,7.493697265625,-1.1934510469436646,-0.5868399739265442,0.414436012506485
1711523602388343000,7.503343017578125,-1.1662529706954956,-0.664463996887207,0.6092659831047058
1711523602397988900,7.51298876953125,-1.050745964050293,-0.7061290144920349,0.7000070214271545
1711523602407634700,7.522634765625,-0.8485720157623291,-0.7253779768943787,0.6589930057525635
1711523602417280800,7.53228076171875,-0.6383799910545349,-0.6725220084190369,0.5418220162391663
1711523602426926600,7.541926513671875,-0.43705400824546814,-0.6961280107498169,0.456402987241745
1711523602436572700,7.55157275390625,-0.28075098991394043,-0.6132439970970154,0.3603990077972412
1711523602446218500,7.561218505859375,-0.21562600135803223,-0.47125300765037537,0.18799400329589844
1711523602455864300,7.5708642578125,-0.1925860047340393,-0.3139050006866455,0.029381999745965004
1711523602465510100,7.58051025390625,-0.05870800092816353,-0.23038500547409058,-0.0733409970998764
1711523602475156000,7.590156005859375,-0.04687400162220001,-0.05173100158572197,-0.25391000509262085
1711523602484801800,7.5998017578125,-0.11658400297164917,0.02623800002038479,-0.38029399514198303
1711523602494447600,7.609447509765625,-0.19817499816417694,0.10570599883794785,-0.3446680009365082
1711523602504093400,7.619093505859375,-0.2670069932937622,0.16263499855995178,-0.30150800943374634
1711523602513739300,7.6287392578125,-0.3478260040283203,0.18985800445079803,-0.19268499314785004
1711523602523385000,7.638385009765625,-0.47089800238609314,0.2839379906654358,-0.13950799405574799
1711523602533031000,7.648031005859375,-0.5787220001220703,0.28654900193214417,0.019046999514102936
1711523602542677000,7.657677001953125,-0.606561005115509,0.32449400424957275,0.11979900300502777
1711523602552323000,7.667322998046875,-0.592415988445282,0.3388510048389435,0.2031950056552887
1711523602561969000,7.676968994140625,-0.49814799427986145,0.2842389941215515,0.2422180026769638
1711523602571614700,7.68661474609375,-0.41668498516082764,0.24078500270843506,0.18859800696372986
1711523602581260300,7.69626025390625,-0.36328500509262085,0.21419799327850342,0.13320699334144592
1711523602590906400,7.70590625,-0.28171101212501526,0.1877869963645935,0.048902999609708786
1711523602600552000,7.715552001953125,-0.296301007270813,0.14610999822616577,0.0884149968624115
1711523602610198000,7.725197998046875,-0.31024301052093506,0.1602810025215149,0.09363500028848648
1711523602619843800,7.73484375,-0.20221999287605286,0.22598899900913239,0.06204900145530701
1711523602629490000,7.744489990234375,-0.1750590056180954,0.22100399434566498,0.13034899532794952
1711523602639135700,7.7541357421875,-0.20303000509738922,0.2698650062084198,0.19303099811077118
1711523602648781600,7.763781494140625,-0.21589699387550354,0.34825599193573,0.1646209955215454
1711523602658427400,7.773427490234375,-0.24363499879837036,0.44876500964164734,0.146574005484581
1711523602668073200,7.7830732421875,-0.2829119861125946,0.47631898522377014,0.14716500043869019
1711523602677719000,7.792718994140625,-0.2697240114212036,0.5487989783287048,0.17041300237178802
1711523602687364900,7.80236474609375,-0.15889599919319153,0.5589069724082947,0.20816999673843384
1711523602697010700,7.8120107421875,-0.10483600199222565,0.5769870281219482,0.28663399815559387
1711523602706656800,7.82165673828125,0.04666600003838539,0.5352910161018372,0.3068169951438904
1711523602716302800,7.831302734375,0.23716500401496887,0.6192029714584351,0.2517569959163666
1711523602725948400,7.840948486328125,0.36239999532699585,0.6371970176696777,0.21147899329662323
1711523602735594200,7.85059423828125,0.3764199912548065,0.6458449959754944,0.17002899944782257
1711523602745240000,7.860239990234375,0.3799470067024231,0.6160609722137451,0.12088599801063538
1711523602754886000,7.869885986328125,0.31291601061820984,0.6439549922943115,0.10371000319719315
1711523602764532000,7.879531982421875,0.24901700019836426,0.6084690093994141,0.10283900052309036
1711523602774177800,7.889177734375,0.19572299718856812,0.5527600049972534,0.13172200322151184
1711523602783823600,7.89882373046875,0.21313799917697906,0.5235490202903748,0.14898699522018433
1711523602793469400,7.908469482421875,0.24128800630569458,0.5123720169067383,0.13424700498580933
1711523602803115300,7.918115234375,0.3662180006504059,0.3502649962902069,0.19155600666999817
1711523602812761000,7.927760986328125,0.47572198510169983,0.22146399319171906,0.26344698667526245
1711523602822407200,7.9374072265625,0.598471999168396,0.08117800205945969,0.36975398659706116
1711523602832053200,7.94705322265625,0.7893630266189575,-0.04381199926137924,0.3357259929180145
1711523602841699000,7.956698974609375,0.9526730179786682,0.03852200135588646,0.13312800228595734
1711523602851345000,7.966344970703125,1.062258005142212,0.04614799842238426,-0.018316000699996948
1711523602860990500,7.975990478515625,1.0361629724502563,0.10369499772787094,-0.05449099838733673
1711523602870636300,7.98563623046875,0.8879989981651306,0.07478100061416626,0.029913000762462616
1711523602880282400,7.995282470703125,0.685483992099762,0.07157699763774872,0.1303579956293106
1711523602889928000,8.004927978515624,0.4420270025730133,0.06956099718809128,0.2209170013666153
1711523602899574000,8.014573974609375,0.3886289894580841,0.018386999145150185,0.239997997879982
1711523602909220000,8.02422021484375,0.5120819807052612,-0.08474999666213989,0.12450700253248215
1711523602918866000,8.033865966796874,0.7014390230178833,-0.19558200240135193,-0.025905000045895576
1711523602928511700,8.04351171875,0.8788989782333374,-0.34892499446868896,-0.20365700125694275
1711523602938157600,8.053157470703125,0.9581620097160339,-0.3536359965801239,-0.37325599789619446
1711523602947803400,8.062803466796876,0.8767930269241333,-0.39777401089668274,-0.49824899435043335
1711523602957449200,8.07244921875,0.7783430218696594,-0.47714999318122864,-0.5270289778709412
1711523602967095000,8.082094970703125,0.6148970127105713,-0.5727779865264893,-0.5326210260391235
1711523602976740900,8.091740966796875,0.5428450107574463,-0.5746170282363892,-0.520924985408783
1711523602986387000,8.101386962890626,0.514989972114563,-0.7186959981918335,-0.4963099956512451
1711523602996032800,8.11103271484375,0.6188430190086365,-0.7057719826698303,-0.5342540144920349
1711523603005678800,8.120678955078125,0.7811660170555115,-0.6939610242843628,-0.6412079930305481
1711523603015324700,8.13032470703125,0.8855670094490051,-0.6937869787216187,-0.6544399857521057
1711523603024970500,8.139970458984376,0.9120979905128479,-0.671006977558136,-0.7423850297927856
1711523603034616300,8.1496162109375,0.8686379790306091,-0.5754839777946472,-0.7711690068244934
1711523603044262000,8.159261962890625,0.800832986831665,-0.6162340044975281,-0.74372798204422
1711523603053908000,8.168907958984375,0.6633650064468384,-0.5713409781455994,-0.6770730018615723
1711523603063553800,8.1785537109375,0.4874660074710846,-0.5526610016822815,-0.5932009816169739
1711523603073199600,8.18819970703125,0.3099510073661804,-0.5185890197753906,-0.4457879960536957
1711523603082845400,8.197845458984375,0.10709299892187119,-0.491237998008728,-0.394910991191864
1711523603092491300,8.2074912109375,-0.028710000216960907,-0.3881259858608246,-0.3391309976577759
1711523603102137600,8.2171376953125,-0.16330400109291077,-0.33679699897766113,-0.3331820070743561
1711523603111783400,8.226783447265625,-0.23064599931240082,-0.29607999324798584,-0.24608999490737915
1711523603121429200,8.23642919921875,-0.2564849853515625,-0.25864899158477783,-0.21969999372959137
1711523603131074800,8.24607470703125,-0.2697620093822479,-0.22188599407672882,-0.08365199714899063
1711523603140720600,8.255720703125,-0.35045599937438965,-0.3057529926300049,0.15315699577331543
1711523603150366700,8.26536669921875,-0.3792639970779419,-0.3539389967918396,0.27614301443099976
1711523603160012500,8.275012451171875,-0.3919439911842346,-0.40845298767089844,0.310140997171402
1711523603169658400,8.284658447265626,-0.47573500871658325,-0.4620859920978546,0.32773301005363464
1711523603179304200,8.29430419921875,-0.6926050186157227,-0.5556970238685608,0.30113399028778076
1711523603188950000,8.303949951171875,-0.7754529714584351,-0.42009401321411133,0.09698999673128128
1711523603198596000,8.31359619140625,-0.8836550116539001,-0.3862510025501251,0.006155999843031168
1711523603208242000,8.323241943359376,-0.9253749847412109,-0.33154699206352234,-0.06586199998855591
1711523603217887700,8.3328876953125,-0.9392979741096497,-0.369843989610672,-0.02739799953997135
1711523603227533600,8.342533447265625,-0.914683997631073,-0.3426460027694702,0.044245000928640366
1711523603237179400,8.352179443359375,-0.8346499800682068,-0.35454198718070984,0.09927000105381012
1711523603246825200,8.3618251953125,-0.7427120208740234,-0.31772199273109436,0.07002600282430649
1711523603256471300,8.37147119140625,-0.6356310248374939,-0.22770600020885468,-0.00519500020891428
1711523603266117400,8.381117431640625,-0.4742169976234436,-0.17004600167274475,-0.08040100336074829
1711523603275763200,8.39076318359375,-0.3802039921283722,-0.10797200351953506,-0.15666499733924866
1711523603285408800,8.40040869140625,-0.32629600167274475,-0.02164199948310852,-0.17664000391960144
1711523603295054800,8.410054931640625,-0.31346800923347473,0.048882998526096344,-0.1683720052242279
1711523603304700700,8.41970068359375,-0.2723349928855896,0.12164399772882462,-0.1927659958600998
1711523603314346500,8.429346435546876,-0.3004390001296997,0.20178300142288208,-0.20866799354553223
1711523603323992300,8.438992431640624,-0.3813689947128296,0.24782100319862366,-0.18827000260353088
1711523603333638100,8.44863818359375,-0.3957040011882782,0.2953149974346161,-0.19614799320697784
1711523603343284000,8.458283935546875,-0.46241500973701477,0.31862300634384155,-0.2438870072364807
1711523603352930000,8.467929931640626,-0.6129339933395386,0.29521599411964417,-0.2017969936132431
1711523603362576000,8.477575927734375,-0.7483609914779663,0.23951099812984467,-0.09892100095748901
1711523603372222000,8.487221923828125,-0.8718370199203491,0.23187799751758575,-0.05903000012040138
1711523603381867800,8.49686767578125,-0.9125450253486633,0.20917800068855286,0.02208000048995018
1711523603391513600,8.506513671875,-0.9001929759979248,0.16776199638843536,0.0638820007443428
1711523603401159200,8.5161591796875,-0.777970016002655,0.1959110051393509,0.026548000052571297
1711523603410805200,8.52580517578125,-0.5888479948043823,0.24414600431919098,-0.021035000681877136
1711523603420451000,8.535451171875,-0.3848240077495575,0.2626419961452484,-0.0608379989862442
1711523603430097200,8.54509716796875,-0.19570200145244598,0.2460400015115738,-0.008062999695539474
1711523603439742700,8.55474267578125,-0.0736280009150505,0.2803820073604584,0.016465000808238983
1711523603449388500,8.564388427734375,0.0202649999409914,0.2907640039920807,0.056341998279094696
1711523603459034600,8.57403466796875,0.0743739977478981,0.308214008808136,0.07811799645423889
1711523603468680400,8.583680419921874,0.11408700048923492,0.32826098799705505,0.07756300270557404
1711523603478326300,8.593326171875,0.18224899470806122,0.36544400453567505,0.0450190007686615
1711523603487972000,8.60297216796875,0.08595500141382217,0.44864800572395325,-0.01395499985665083
1711523603497618200,8.6126181640625,0.01905299909412861,0.5104169845581055,-0.11928199976682663
1711523603507264000,8.622263916015624,-0.022345000877976418,0.6003350019454956,-0.16313700377941132
1711523603516909800,8.631909912109375,-0.033684998750686646,0.6729980111122131,-0.16948799788951874
1711523603526555600,8.6415556640625,-0.1020279973745346,0.7574269771575928,-0.1588679999113083
1711523603536201500,8.651201416015626,-0.05827200040221214,0.7389159798622131,-0.08747400343418121
1711523603545847600,8.66084765625,-0.11255999654531479,0.7900940179824829,-0.020024999976158142
1711523603555493400,8.670493408203125,-0.06796099990606308,0.8280209898948669,0.044109001755714417
1711523603565139200,8.68013916015625,-0.13550199568271637,0.9007800221443176,0.09594299644231796
1711523603574785000,8.689784912109374,-0.1308780014514923,0.9023429751396179,0.1245189979672432
1711523603584430800,8.699430908203125,-0.19825300574302673,0.918179988861084,0.10427600145339966
1711523603594076700,8.70907666015625,-0.056800998747348785,0.9193500280380249,0.052531998604536057
1711523603603722500,8.718722412109376,-0.04247099906206131,0.9357290267944336,0.015417000278830528
1711523603613368300,8.728368408203124,0.030856000259518623,0.8480579853057861,-0.02147899940609932
1711523603623014400,8.738014404296875,0.004178999923169613,0.9209529757499695,-0.088468998670578
1711523603632660200,8.74766015625,-0.004095000214874744,0.83685302734375,-0.0697380006313324
1711523603642306300,8.757306396484376,0.009643999859690666,0.8334329724311829,-0.09525000303983688
1711523603651952000,8.7669521484375,0.1768990010023117,0.6996179819107056,-0.06119000166654587
1711523603661598000,8.776597900390625,0.4077000021934509,0.6508150100708008,-0.07030899822711945
1711523603671243800,8.786243896484375,0.7091320157051086,0.5651540160179138,-0.10070399940013885
1711523603680889600,8.7958896484375,0.9530689716339111,0.4940490126609802,-0.16246099770069122
1711523603690535700,8.80553564453125,1.1717480421066284,0.43343600630760193,-0.2507359981536865
1711523603700181500,8.815181396484375,1.307026982307434,0.4004650115966797,-0.3387799859046936
1711523603709827000,8.8248271484375,1.4030239582061768,0.32822299003601074,-0.420430988073349
1711523603719473000,8.834472900390624,1.3890360593795776,0.34384000301361084,-0.5253840088844299
1711523603729118700,8.84411865234375,1.322309970855713,0.3063960075378418,-0.5346149802207947
1711523603738764800,8.853764892578125,1.2680360078811646,0.41187000274658203,-0.6664379835128784
1711523603748411000,8.863410888671876,1.271319031715393,0.508961021900177,-0.718189001083374
1711523603758056700,8.873056640625,1.2583060264587402,0.47509199380874634,-0.6150140166282654
1711523603767702500,8.88270263671875,1.2473469972610474,0.41321200132369995,-0.4618619978427887
1711523603777348400,8.892348388671875,1.2206319570541382,0.37998199462890625,-0.34617000818252563
1711523603786994200,8.901994140625,1.2357569932937622,0.3117409944534302,-0.17138099670410156
1711523603796640000,8.911639892578124,1.304036021232605,0.24014200270175934,-0.12813599407672882
1711523603806285800,8.921285888671875,1.4127670526504517,0.10460600256919861,-0.06837700307369232
1711523603815931600,8.930931640625,1.5493409633636475,-0.04969299957156181,-0.07627899944782257
1711523603825577500,8.940577392578126,1.5346150398254395,-0.1618800014257431,-0.18087799847126007
1711523603835223600,8.9502236328125,1.3726600408554077,-0.22951599955558777,-0.34475499391555786
1711523603844869400,8.959869384765625,1.1280410289764404,-0.21590900421142578,-0.47981101274490356
1711523603854515200,8.96951513671875,0.8038439750671387,-0.27951499819755554,-0.4768809974193573
1711523603864161300,8.979161376953124,0.4498710036277771,-0.3867869973182678,-0.2699680030345917
1711523603873807000,8.98880712890625,0.35731199383735657,-0.5057410001754761,-0.14732100069522858
1711523603883453000,8.998452880859375,0.3149639964103699,-0.5601950287818909,-0.12811000645160675
1711523603893098800,9.0080986328125,0.38559600710868835,-0.6907610297203064,-0.17056100070476532
1711523603902744600,9.01774462890625,0.4372760057449341,-0.7604929804801941,-0.20138299465179443
1711523603912390700,9.027390625,0.3310920000076294,-0.8799030184745789,-0.3134300112724304
1711523603922036700,9.03703662109375,0.16507799923419952,-0.853069007396698,-0.4390070140361786
1711523603931682600,9.0466826171875,0.07289600372314453,-0.8801730275154114,-0.5225520133972168
1711523603941328400,9.056328369140624,-0.06527599692344666,-0.856344997882843,-0.4916450083255768
1711523603950974200,9.06597412109375,-0.27967000007629395,-0.912356972694397,-0.3107660114765167
1711523603960620000,9.0756201171875,-0.43204599618911743,-0.8742349743843079,-0.08076599985361099
1711523603970265900,9.085265869140626,-0.6057090163230896,-0.8998079895973206,0.21652600169181824
1711523603979911700,9.09491162109375,-0.6646220088005066,-0.895330011844635,0.5220010280609131
1711523603989557800,9.104557861328125,-0.6212419867515564,-0.9396330118179321,0.769993007183075
1711523603999203600,9.11420361328125,-0.40905600786209106,-0.8992170095443726,0.8175250291824341
1711523604008849700,9.123849609375,-0.2437400072813034,-0.9653279781341553,0.876691997051239
1711523604018495500,9.13349560546875,-0.19544099271297455,-0.9465780258178711,0.8152909874916077
1711523604028141300,9.143141357421875,-0.24829399585723877,-0.930866003036499,0.6916869878768921
1711523604037787000,9.152786865234376,-0.2938759922981262,-0.812404990196228,0.5438839793205261
1711523604047433000,9.162432861328124,-0.4015890061855316,-0.7959780097007751,0.4785969853401184
1711523604057078800,9.172078857421875,-0.5968930125236511,-0.7727950215339661,0.4376460015773773
1711523604066724600,9.181724609375,-0.7459989786148071,-0.711143970489502,0.4663339853286743
1711523604076370400,9.191370361328126,-0.7509729862213135,-0.7511370182037354,0.5187410116195679
1711523604086016300,9.201016357421874,-0.6964449882507324,-0.8180199861526489,0.4863699972629547
1711523604095662300,9.210662353515625,-0.6334490180015564,-0.7420439720153809,0.40532800555229187
1711523604105308200,9.22030810546875,-0.6065030097961426,-0.7629380226135254,0.43485501408576965
1711523604114954200,9.229954345703124,-0.6244750022888184,-0.6628959774971008,0.3632969856262207
1711523604124599800,9.239599853515625,-0.5564299821853638,-0.5756099820137024,0.3706510066986084
1711523604134246000,9.249245849609375,-0.6546570062637329,-0.47639399766921997,0.36614900827407837
1711523604143891700,9.2588916015625,-0.6274570226669312,-0.4041540026664734,0.46192899346351624
1711523604153537500,9.26853759765625,-0.6574320197105408,-0.3399359881877899,0.5787969827651978
1711523604163183400,9.278183349609375,-0.7262740135192871,-0.31841298937797546,0.684162974357605
1711523604172829200,9.2878291015625,-0.7155609726905823,-0.2670130133628845,0.6723420023918152
1711523604182475000,9.29747509765625,-0.6351439952850342,-0.22565799951553345,0.5924460291862488
1711523604192121000,9.30712109375,-0.5967100262641907,-0.173335000872612,0.4435040056705475
1711523604201767000,9.316766845703125,-0.5030009746551514,-0.09875799715518951,0.35082000494003296
1711523604211412700,9.326412841796875,-0.3278290033340454,-0.04828000068664551,0.2719930112361908
1711523604221058800,9.336058837890626,-0.016222000122070312,-0.03909299895167351,0.20050400495529175
1711523604230704600,9.34570458984375,0.20003999769687653,-0.01575399935245514,0.15191000699996948
1711523604240350500,9.3553505859375,0.3758949935436249,0.04340000078082085,0.11640600115060806
1711523604249996300,9.364996337890625,0.4160340130329132,0.054777998477220535,0.05383700132369995
1711523604259642000,9.37464208984375,0.3474780023097992,0.06260000169277191,-0.03241400048136711
1711523604269288000,9.384287841796874,0.17076900601387024,0.12670400738716125,-0.10057900100946426
1711523604278934000,9.39393408203125,-0.0879950001835823,0.18139299750328064,-0.24613900482654572
1711523604288580000,9.403580078125,-0.31780800223350525,0.2951349914073944,-0.34286800026893616
1711523604298226000,9.413225830078124,-0.5491600036621094,0.32004499435424805,-0.4213089942932129
1711523604307871500,9.42287158203125,-0.7373960018157959,0.37267500162124634,-0.4281260073184967
1711523604317517600,9.432517578125,-0.7782660126686096,0.3607639968395233,-0.33902600407600403
1711523604327163400,9.442163330078126,-0.7355759739875793,0.35322800278663635,-0.16993500292301178
1711523604336809200,9.451809326171874,-0.5726289749145508,0.25321000814437866,0.029061999171972275
1711523604346455000,9.461455078125,-0.3544600009918213,0.22264300286769867,0.1110130026936531
1711523604356101000,9.47110107421875,-0.10999500006437302,0.2616890072822571,0.050450000911951065
1711523604365747000,9.480746826171876,0.026900000870227814,0.2679060101509094,-0.022766999900341034
1711523604375393000,9.49039306640625,-0.04148399829864502,0.3136940002441406,-0.04664900153875351
1711523604385038600,9.50003857421875,-0.16271699965000153,0.30845099687576294,-0.006130000110715628
1711523604394684700,9.5096845703125,-0.3398129940032959,0.3621000051498413,0.04375100135803223
1711523604404330500,9.51933056640625,-0.5557850003242493,0.3740130066871643,0.08770299702882767
1711523604413976300,9.528976318359375,-0.5965840220451355,0.4406690001487732,0.04424599930644035
1711523604423622100,9.5386220703125,-0.4985499978065491,0.4884929955005646,-0.02101299911737442
1711523604433268200,9.548268310546876,-0.5396029949188232,0.327800989151001,0.03486400097608566
1711523604442914000,9.5579140625,-0.3742839992046356,0.4278630018234253,-0.03000500053167343
1711523604452560000,9.567559814453125,-0.2796950042247772,0.4504219889640808,-0.09958299994468689
1711523604462206000,9.5772060546875,-0.23736900091171265,0.44605299830436707,-0.04528599977493286
1711523604471851800,9.586851806640626,-0.10219500213861465,0.49878400564193726,0.03345999866724014
1711523604481497600,9.59649755859375,0.1851940006017685,0.5340660214424133,0.15758100152015686
1711523604491143400,9.606143310546875,0.3750790059566498,0.47572699189186096,0.3488200008869171
1711523604500789200,9.615789306640625,0.5259479880332947,0.4453180134296417,0.4092020094394684
1711523604510435300,9.625435302734376,0.6621159911155701,0.5418350100517273,0.3587360084056854
1711523604520081000,9.635080810546874,0.5555329918861389,0.5241870284080505,0.35245099663734436
1711523604529726700,9.644726806640625,0.4471510052680969,0.571520984172821,0.44446098804473877
1711523604539372500,9.65437255859375,0.21891500055789948,0.5447310209274292,0.37650901079177856
1711523604549018600,9.6640185546875,0.029133999720215797,0.5755259990692139,0.346561998128891
1711523604558664700,9.673664794921875,-0.1164110004901886,0.5969240069389343,0.3134239912033081
1711523604568310500,9.683310546875,-0.34730198979377747,0.5903180241584778,0.28695398569107056
1711523604577956400,9.692956298828125,-0.45237401127815247,0.5504670143127441,0.28464099764823914
1711523604587602200,9.702602294921874,-0.3573870062828064,0.5676339864730835,0.3540180027484894
1711523604597248000,9.712248046875,-0.27324599027633667,0.5291020274162292,0.4600279927253723
1711523604606893800,9.721893798828125,-0.029534000903367996,0.4749230146408081,0.6228089928627014
1711523604616539600,9.73153955078125,0.515716016292572,0.4428029954433441,0.6786659955978394
1711523604626185700,9.741185791015624,0.8409749865531921,0.33600500226020813,0.680637001991272
1711523604635831600,9.75083154296875,1.1399680376052856,0.20658500492572784,0.6131619811058044
1711523604645477600,9.7604775390625,1.2212419509887695,0.22444899380207062,0.48426398634910583
1711523604655123500,9.77012353515625,1.1136449575424194,0.29293200373649597,0.2591550052165985
1711523604664769300,9.779769287109374,0.9920589923858643,0.2831610143184662,0.12687000632286072
1711523604674415000,9.7894150390625,0.7496219873428345,0.28432199358940125,-0.03217199817299843
1711523604684061000,9.79906103515625,0.6152430176734924,0.32180100679397583,-0.19665899872779846
1711523604693707000,9.80870703125,0.3870590031147003,0.2774359881877899,-0.17659899592399597
1711523604703352800,9.818352783203125,0.2525550127029419,0.24874599277973175,-0.1423639953136444
1711523604712999000,9.8279990234375,0.2408680021762848,0.13644899427890778,-0.07682400196790695
1711523604722644700,9.837644775390626,0.3914709985256195,0.03444699943065643,-0.06844399869441986
1711523604732290800,9.847290771484374,0.5270169973373413,-0.0824500024318695,-0.08068499714136124
1711523604741936400,9.856936279296875,0.6361979842185974,-0.2341099977493286,-0.06960000097751617
1711523604751582500,9.86658251953125,0.7561619877815247,-0.3201430141925812,-0.13350500166416168
1711523604761228000,9.87622802734375,0.8242970108985901,-0.4700619876384735,-0.19530999660491943
1711523604770874000,9.8858740234375,0.8749150037765503,-0.5171170234680176,-0.3365350067615509
1711523604780520200,9.895520263671875,0.9159690141677856,-0.5457500219345093,-0.5407339930534363
1711523604790165800,9.905165771484375,0.8167510032653809,-0.6054689884185791,-0.6016430258750916
1711523604799811800,9.914811767578126,0.6538980007171631,-0.6516159772872925,-0.6838150024414062
1711523604809457400,9.92445751953125,0.4322830140590668,-0.6574680209159851,-0.6718310117721558
1711523604819103500,9.934103515625,0.21495400369167328,-0.6903870105743408,-0.6984289884567261
1711523604828749300,9.943749267578125,0.03430600091814995,-0.6549890041351318,-0.6811779737472534
1711523604838395400,9.9533955078125,-0.0881040021777153,-0.6295639872550964,-0.7046539783477783
1711523604848041200,9.963041259765625,-0.022853000089526176,-0.47699201107025146,-0.790045976638794
1711523604857687000,9.97268701171875,0.12641499936580658,-0.44453099370002747,-0.7651159763336182
1711523604867332900,9.982332763671875,0.27275198698043823,-0.47465500235557556,-0.7032619714736938
1711523604876979000,9.99197900390625,0.4762119948863983,-0.4798640012741089,-0.7653040289878845
1711523604886624800,10.001624755859375,0.622859001159668,-0.4838919937610626,-0.8068649768829346
1711523604896270600,10.0112705078125,0.5953879952430725,-0.5366889834403992,-0.8674010038375854
1711523604905916400,10.02091650390625,0.483814001083374,-0.5585070252418518,-0.9548379778862
1711523604915562200,10.030562255859374,0.33438000082969666,-0.5374320149421692,-1.16838800907135
1711523604925208300,10.040208251953125,0.21017099916934967,-0.5149000287055969,-1.061993956565857
1711523604934854100,10.049854248046875,0.06094999983906746,-0.510968029499054,-0.8584589958190918
1711523604944500000,10.0595,-0.009073000401258469,-0.541221022605896,-0.6039680242538452
1711523604954145800,10.069145751953124,0.08689600229263306,-0.5911579728126526,-0.5688409805297852
1711523604963791600,10.07879150390625,0.13945600390434265,-0.5785369873046875,-0.7025150060653687
1711523604973437700,10.088437744140625,0.09937400370836258,-0.5484319925308228,-0.8492239713668823
1711523604983083500,10.09808349609375,-0.03793799877166748,-0.5155270099639893,-0.9390259981155396
1711523604992729600,10.1077294921875,-0.29592499136924744,-0.5006440281867981,-1.1598010063171387
1711523605002375400,10.11737548828125,-0.4731979966163635,-0.39373600482940674,-1.1715389490127563
1711523605012021200,10.127021240234376,-0.5681909918785095,-0.30671900510787964,-1.2881799936294556
1711523605021667000,10.1366669921875,-0.5815140008926392,-0.2574400007724762,-1.2289760112762451
1711523605031313000,10.14631298828125,-0.4864000082015991,-0.35431501269340515,-1.0574020147323608
1711523605040958700,10.155958740234375,-0.4331659972667694,-0.38357898592948914,-0.8306609988212585
1711523605050604800,10.165604736328126,-0.43364301323890686,-0.3936220109462738,-0.8408079743385315
1711523605060251000,10.1752509765625,-0.48924100399017334,-0.40544000267982483,-0.7540199756622314
1711523605069896400,10.184896484375,-0.5849400162696838,-0.2220900058746338,-1.0089960098266602
1711523605079542500,10.19454248046875,-0.7472379803657532,-0.24361099302768707,-1.0732860565185547
1711523605089188400,10.204188232421876,-0.7062479853630066,-0.126678004860878,-1.421462059020996
1711523605098834200,10.213834228515625,-0.4719470143318176,-0.29019200801849365,-1.3515340089797974
1711523605108480000,10.22347998046875,-0.18554599583148956,-0.48436400294303894,-1.3436460494995117
1711523605118125800,10.233125732421875,0.2517859935760498,-0.5859820246696472,-1.2734249830245972
1711523605127772000,10.24277197265625,0.2371779978275299,-0.779964029788971,-1.14369797706604
1711523605137417700,10.252417724609375,0.19663499295711517,-0.5474990010261536,-1.1257389783859253
1711523605147063800,10.262063720703125,0.16754299402236938,-0.6238390207290649,-0.865481972694397
1711523605156709600,10.271709716796876,0.04362599924206734,-0.6605160236358643,-0.7399010062217712
1711523605166355500,10.28135546875,-0.10742300003767014,-0.6043739914894104,-0.8543499708175659
1711523605176001300,10.291001220703125,-0.3095639944076538,-0.5454049706459045,-1.0129259824752808
1711523605185647000,10.300647216796875,-0.5540339946746826,-0.5908010005950928,-1.5230590105056763
1711523605195293200,10.310293212890626,-0.642350971698761,-0.6112959980964661,-1.4721859693527222
1711523605204939000,10.31993896484375,-0.5714799761772156,-0.8888009786605835,-1.0588070154190063
1711523605214585000,10.329585205078125,-0.36622199416160583,-1.242900013923645,-0.3416079878807068
1711523605224231000,10.33923095703125,-0.023524999618530273,-1.3026560544967651,0.02712400071322918
1711523605233876700,10.348876708984376,0.2603659927845001,-1.2322579622268677,0.23580700159072876
1711523605243522600,10.3585224609375,0.43856799602508545,-1.1806089878082275,0.3194890022277832
1711523605253168400,10.36816845703125,0.6934430003166199,-1.1218830347061157,0.49713999032974243
1711523605262814500,10.377814453125,0.5978519916534424,-1.0482800006866455,0.44090399146080017
1711523605272460300,10.387460205078124,0.33616799116134644,-0.9001230001449585,0.361625999212265
1711523605282106000,10.397106201171875,0.037188999354839325,-1.001265048980713,0.49119898676872253
1711523605291752000,10.406751953125,-0.18289199471473694,-1.0525050163269043,0.5537340044975281
1711523605301398000,10.41639794921875,-0.16743500530719757,-1.2096630334854126,0.7789390087127686
1711523605311043800,10.4260439453125,-0.3200480043888092,-1.1433360576629639,0.8168669939041138
1711523605320689700,10.435689697265625,-0.20923000574111938,-1.1736940145492554,1.0430660247802734
1711523605330335700,10.445335693359375,-0.227976992726326,-0.9914199709892273,1.3058010339736938
1711523605339981600,10.454981689453126,-0.14486899971961975,-0.8391690254211426,1.4999849796295166
1711523605349627400,10.46462744140625,-0.1778869926929474,-0.661408007144928,1.597486972808838
1711523605359273200,10.474273193359375,-0.10787300020456314,-0.5901920199394226,1.7454149723052979
1711523605368919000,10.4839189453125,0.05070300027728081,-0.49117401242256165,1.6722270250320435
1711523605378565400,10.4935654296875,0.05251999944448471,-0.433788001537323,1.6706420183181763
1711523605388211200,10.503211181640625,0.034046001732349396,-0.3189080059528351,1.5932979583740234
1711523605397857000,10.51285693359375,0.007534999866038561,-0.2765670120716095,1.6861790418624878
1711523605407502800,10.5225029296875,-0.13419899344444275,-0.15835200250148773,1.6303199529647827
1711523605417148700,10.532148681640624,-0.18868599832057953,-0.15740099549293518,1.7388639450073242
1711523605426794500,10.54179443359375,-0.23423999547958374,-0.1471630036830902,1.5978150367736816
1711523605436440300,10.5514404296875,-0.356810986995697,-0.07637699693441391,1.5697059631347656
1711523605446086100,10.561086181640626,-0.4011310040950775,-0.06841299682855606,1.5036029815673828
1711523605455732200,10.570732177734374,-0.49626100063323975,-0.047130998224020004,1.4781490564346313
1711523605465378000,10.5803779296875,-0.10350099951028824,0.09362100064754486,1.3329800367355347
1711523605475024100,10.590024169921875,0.1693049967288971,0.01234699971973896,1.5274349451065063
1711523605484670000,10.599669921875,0.42637398838996887,-0.05203099921345711,1.6882330179214478
1711523605494315800,10.609315673828124,0.671841025352478,-0.13310199975967407,1.7668910026550293
1711523605503961600,10.618961669921875,0.6575890183448792,-0.15502400696277618,1.624567985534668
1711523605513607700,10.628607666015625,0.630486011505127,-0.13353200256824493,1.4452300071716309
1711523605523253500,10.63825341796875,0.3719730079174042,-0.1110370010137558,1.2060339450836182
1711523605532899300,10.6478994140625,0.1405709981918335,-0.11030899733304977,1.1034959554672241
1711523605542545400,10.65754541015625,0.046254001557826996,-0.10448600351810455,0.997937023639679
1711523605552191500,10.66719140625,0.14181099832057953,-0.023282000795006752,0.9968900084495544
1711523605561837300,10.67683740234375,0.30654698610305786,0.038729000836610794,1.0464940071105957
1711523605571483100,10.686483154296875,0.34752199053764343,0.006295999977737665,1.2672460079193115
1711523605581129000,10.69612890625,0.22731900215148926,-0.001560000004246831,1.2879610061645508
1711523605590774800,10.70577490234375,0.20028500258922577,0.043891001492738724,1.3021409511566162
1711523605600420600,10.715420654296874,0.21704399585723877,0.03151499852538109,1.2150779962539673
1711523605610066700,10.725066650390625,0.2177949994802475,0.08968500047922134,1.0704710483551025
1711523605619712500,10.73471240234375,0.24817100167274475,0.13759000599384308,0.8078190088272095
1711523605629358600,10.744358642578124,0.29045501351356506,0.09719700366258621,0.49094700813293457
1711523605639004400,10.75400439453125,0.3058820068836212,0.15435099601745605,0.12517200410366058
1711523605648650200,10.763650146484375,0.2672039866447449,0.1648229956626892,-0.14574000239372253
1711523605658296000,10.773296142578126,0.050209999084472656,0.12550699710845947,-0.31572800874710083
1711523605667942000,10.78294189453125,-0.0019890000112354755,0.07926400005817413,-0.4069350063800812
1711523605677587700,10.792587646484375,0.05249200016260147,0.0320889987051487,-0.4373440146446228
1711523605687233500,10.802233642578125,0.10851799696683884,0.014480000361800194,-0.5290629863739014
1711523605696879600,10.811879638671876,0.2569429874420166,-0.015798000618815422,-0.538798987865448
1711523605706525400,10.821525390625,0.2847059965133667,-0.021358000114560127,-0.5884029865264893
1711523605716171500,10.831171630859375,0.282166987657547,0.023871000856161118,-0.5946320295333862
1711523605725817300,10.8408173828125,0.24097399413585663,0.01408500038087368,-0.5766159892082214
1711523605735463200,10.850463134765626,0.22505700588226318,0.0026549999602138996,-0.40562599897384644
1711523605745109200,10.860109130859374,0.1424739956855774,0.00417400011792779,-0.21363399922847748
1711523605754755000,10.869755126953125,-0.008167999796569347,-0.019480999559164047,0.00610300013795495
1711523605764401000,10.87940087890625,0.045340001583099365,-0.04197400063276291,0.14783500134944916
1711523605774047000,10.889046875,0.09925699979066849,-0.10827499628067017,0.1321440041065216
1711523605783692800,10.89869287109375,0.2073190063238144,-0.0971440002322197,-0.053293000906705856
1711523605793339000,10.9083388671875,0.27366599440574646,-0.041909001767635345,-0.22263799607753754
1711523605802984400,10.917984375,0.3545530140399933,0.14667899906635284,-0.47462400794029236
1711523605812630500,10.927630615234374,0.29806798696517944,0.21144400537014008,-0.49069100618362427
1711523605822276400,10.9372763671875,0.2565709948539734,0.23316599428653717,-0.41354501247406006
1711523605831922200,10.946922119140625,0.10594400018453598,0.22720399498939514,-0.2402690052986145
1711523605841568300,10.956568359375,0.14627200365066528,0.2204120010137558,-0.008771000429987907
1711523605851213800,10.9662138671875,0.3373259902000427,0.21464300155639648,0.22431400418281555
1711523605860860000,10.97585986328125,0.5549960136413574,0.17840999364852905,0.38837599754333496
1711523605870506000,10.985506103515625,0.5969799757003784,0.14591600000858307,0.44183799624443054
1711523605880151800,10.99515185546875,0.5702530145645142,0.15666599571704865,0.3923009932041168
1711523605889797600,11.004797607421875,0.29960599541664124,0.17985799908638,0.21717900037765503
1711523605899443500,11.014443359375,0.05590299889445305,0.26483601331710815,0.10185500234365463
1711523605909089300,11.02408935546875,-0.4314329922199249,0.23784199357032776,0.14608299732208252
1711523605918735400,11.0337353515625,-0.8653659820556641,0.24515700340270996,0.26517900824546814
1711523605928381200,11.043381103515625,-0.9840649962425232,0.2651129961013794,0.39579400420188904
1711523605938027000,11.053027099609375,-0.8740929961204529,0.23385800421237946,0.6703749895095825
1711523605947672800,11.0626728515625,-0.6663709878921509,0.16975300014019012,0.8906390070915222
1711523605957319000,11.07231884765625,-0.2580690085887909,0.328218013048172,1.0158309936523438
1711523605966964700,11.08196484375,0.004346000030636787,0.4469670057296753,0.9772530198097229
1711523605976610600,11.091610595703125,0.09914799779653549,0.4970709979534149,1.0249660015106201
1711523605986256600,11.101256591796876,0.1712460070848465,0.5034289956092834,0.947039008140564
1711523605995902500,11.11090234375,0.14390400052070618,0.5650629997253418,0.7968509793281555
1711523606005548300,11.12054833984375,0.011486000381410122,0.4495779871940613,0.6184859871864319
1711523606015194000,11.130194091796875,-0.015279999934136868,0.42925500869750977,0.4014970064163208
1711523606024840000,11.13983984375,-0.14797399938106537,0.4756380021572113,0.1545490026473999
1711523606034485800,11.14948583984375,-0.18794399499893188,0.5961430072784424,0.11215600371360779
1711523606044131800,11.1591318359375,-0.23760099709033966,0.5867829918861389,0.21297100186347961
1711523606053778000,11.16877783203125,0.17182500660419464,0.6588659882545471,0.4092229902744293
1711523606063423500,11.178423583984374,0.4358130097389221,0.6801639795303345,0.4359860122203827
1711523606073069600,11.188069580078125,0.545274019241333,0.7334709763526917,0.4837679862976074
1711523606082715400,11.19771533203125,0.48293301463127136,0.7534409761428833,0.515201985836029
1711523606092361200,11.207361328125,0.41519901156425476,0.8371080160140991,0.622452974319458
1711523606102007300,11.21700732421875,0.3540149927139282,0.8073920011520386,0.6274359822273254
1711523606111653000,11.226653076171875,0.35457199811935425,0.7949659824371338,0.5569120049476624
1711523606121299200,11.23629931640625,0.3874010145664215,0.7036579847335815,0.2927759885787964
1711523606130945300,11.2459453125,0.2387930005788803,0.7309979796409607,-0.030269000679254532
1711523606140591000,11.255591064453125,-0.04167500138282776,0.7532650232315063,-0.3125370144844055
1711523606150237000,11.26523681640625,-0.3258199989795685,0.8254439830780029,-0.5433840155601501
1711523606159882800,11.2748828125,-0.5101289749145508,0.8204100131988525,-0.5186529755592346
1711523606169528600,11.284528564453124,-0.4819929897785187,0.7696380019187927,-0.4996750056743622
1711523606179174400,11.29417431640625,-0.19241000711917877,0.7201629877090454,-0.49942100048065186
1711523606188820200,11.3038203125,0.20169399678707123,0.663811981678009,-0.4815180003643036
1711523606198466000,11.313466064453126,0.6112229824066162,0.5930590033531189,-0.39531001448631287
1711523606208112000,11.323112060546874,0.950980007648468,0.5623369812965393,-0.3220730125904083
1711523606217758200,11.33275830078125,1.115831971168518,0.4176799952983856,-0.0962660014629364
1711523606227404000,11.342404052734375,1.1987450122833252,0.2685520052909851,0.19666700065135956
1711523606237049900,11.3520498046875,1.1879990100860596,0.1304589956998825,0.30649900436401367
1711523606246695700,11.36169580078125,1.068580985069275,0.013368000276386738,0.28937599062919617
1711523606256341800,11.371341796875,1.0847300291061401,-0.04258999973535538,0.12104199826717377
1711523606265987600,11.380987548828125,1.1026769876480103,-0.03061099909245968,-0.11453600227832794
1711523606275633700,11.390633544921876,1.1174249649047852,-0.1686590015888214,-0.26210400462150574
1711523606285279500,11.400279541015625,1.0549839735031128,-0.2874079942703247,-0.3082770109176636
1711523606294925300,11.40992529296875,0.8240919709205627,-0.47180798649787903,-0.20340199768543243
1711523606304571100,11.419571044921875,0.4627220034599304,-0.7193769812583923,0.01292600017040968
1711523606314217200,11.42921728515625,0.19048699736595154,-0.7562500238418579,0.08005800098180771
1711523606323863000,11.438863037109375,-0.008698999881744385,-0.8246380090713501,0.10489699989557266
1711523606333508900,11.4485087890625,-0.1204179972410202,-0.915132999420166,0.10229899734258652
1711523606343155000,11.458155029296876,-0.19944599270820618,-1.0035690069198608,-0.0612029992043972
1711523606352801000,11.467801025390624,-0.19440500438213348,-0.9888129830360413,-0.36819401383399963
1711523606362446800,11.47744677734375,-0.11214999854564667,-1.0185569524765015,-0.7865920066833496
1711523606372092700,11.4870927734375,-0.07095400243997574,-1.037667989730835,-1.0160939693450928
1711523606381738500,11.496738525390626,-0.0028299998957663774,-1.1564949750900269,-1.232161045074463
1711523606391384300,11.50638427734375,-0.08530499786138535,-1.1730519533157349,-1.2542489767074585
1711523606401030100,11.516030029296875,-0.07182499766349792,-1.174901008605957,-1.262603998184204
1711523606410676200,11.52567626953125,-0.274960994720459,-1.0952600240707397,-1.120144009590149
1711523606420322300,11.535322265625,-0.5484359860420227,-1.1203529834747314,-0.8884149789810181
1711523606429968100,11.544968017578125,-0.6682360172271729,-1.0002130270004272,-0.6723999977111816
1711523606439614000,11.554614013671875,-0.6985859870910645,-0.9348059892654419,-0.442654013633728
1711523606449259800,11.564259765625,-0.5720260143280029,-0.8271499872207642,-0.2961820065975189
1711523606458905600,11.573905517578124,-0.3176339864730835,-0.7350460290908813,-0.24233700335025787
1711523606468551700,11.5835517578125,-0.05378599837422371,-0.717956006526947,-0.12593300640583038
1711523606478197500,11.593197509765625,0.18741999566555023,-0.7696750164031982,-0.006639000028371811
1711523606487843600,11.602843505859376,0.28959500789642334,-0.7101179957389832,0.04682999849319458
1711523606497489400,11.612489501953124,0.2732029855251312,-0.7090070247650146,0.1492059975862503
1711523606507135200,11.62213525390625,0.1866230070590973,-0.6567170023918152,0.20315000414848328
1711523606516781000,11.631781005859375,0.14392800629138947,-0.6332839727401733,0.18233400583267212
1711523606526427100,11.64142724609375,0.09962400048971176,-0.5396170020103455,0.07302799820899963
1711523606536073000,11.651072998046875,0.05760899931192398,-0.4273819923400879,-0.13005399703979492
1711523606545718800,11.66071875,-0.02613300085067749,-0.3144550025463104,-0.26284900307655334
1711523606555364600,11.670364501953125,-0.16288599371910095,-0.31940001249313354,-0.3052850067615509
1711523606565010700,11.6800107421875,-0.24571800231933594,-0.23271700739860535,-0.3039860129356384
1711523606574656500,11.689656494140625,-0.4909780025482178,-0.21759100258350372,-0.257207989692688
1711523606584302600,11.699302490234375,-0.7638319730758667,-0.1820629984140396,-0.1497180014848709
1711523606593948400,11.708948486328126,-1.0361720323562622,-0.1425590068101883,0.08239399641752243
1711523606603594500,11.718594482421874,-1.2405719757080078,-0.11168300360441208,0.36506399512290955
1711523606613240300,11.728240234375,-0.9820029735565186,-0.09327500313520432,0.5509960055351257
1711523606622886100,11.73788623046875,-0.6278020143508911,0.03407600149512291,0.5078120231628418
1711523606632532000,11.747531982421876,-0.35582900047302246,0.018640000373125076,0.46650099754333496
1711523606642178000,11.757177978515625,-0.17883899807929993,-0.03547000139951706,0.4622580111026764
1711523606651824000,11.76682421875,-0.07007899880409241,-0.0380450002849102,0.38899800181388855
1711523606661470000,11.776469970703126,-0.0017930000321939588,-0.013364999555051327,0.2443239986896515
1711523606671115800,11.78611572265625,0.011905999854207039,-0.0036009999457746744,0.139615997672081
1711523606680761600,11.79576171875,-0.014972000382840633,0.08115699887275696,-0.0032470000442117453
1711523606690407400,11.805407470703125,-0.06930500268936157,0.1293960064649582,-0.06180400028824806
1711523606700053200,11.81505322265625,-0.13695299625396729,0.15362299978733063,-0.019029999151825905
1711523606709699000,11.824698974609374,-0.23242299258708954,0.16073499619960785,-0.02507700026035309
1711523606719345200,11.83434521484375,-0.23220999538898468,0.19583900272846222,-0.010389000177383423
1711523606728991200,11.8439912109375,-0.23268499970436096,0.17663800716400146,0.1169309988617897
1711523606738637000,11.853636962890626,-0.08266499638557434,0.12485899776220322,0.21520499885082245
1711523606748283000,11.863282958984374,-0.015075000002980232,0.12338600307703018,0.3247309923171997
1711523606757928700,11.8729287109375,0.02622999995946884,0.0768050029873848,0.3816869854927063
1711523606767574800,11.88257470703125,0.13477599620819092,0.11567399650812149,0.394199013710022
1711523606777220400,11.892220458984376,0.1626109927892685,0.14433400332927704,0.33373600244522095
1711523606786866400,11.901866455078125,0.135003000497818,0.1245340034365654,0.3226250112056732
1711523606796512300,11.91151220703125,0.05379800125956535,0.15986700356006622,0.2591550052165985
1711523606806158300,11.921158447265626,-0.028279999271035194,0.1746779978275299,0.21378099918365479
1711523606815804200,11.93080419921875,-0.17763300240039825,0.2140360027551651,0.10813099890947342
1711523606825450200,11.9404501953125,-0.3413029909133911,0.21135200560092926,0.1045989990234375
1711523606835096000,11.950095947265625,-0.5038920044898987,0.181986004114151,0.22053399682044983
1711523606844742000,11.959741943359376,-0.6539369821548462,0.27637600898742676,0.28295499086380005
1711523606854388000,11.969387939453124,-0.6524189710617065,0.33482399582862854,0.3487040102481842
1711523606864033800,11.97903369140625,-0.6120510101318359,0.31057700514793396,0.4140470027923584
1711523606873679400,11.988679443359375,-0.48815199732780457,0.3336139917373657,0.4256559908390045
1711523606883325400,11.998325439453126,-0.2709429860115051,0.3119969964027405,0.42580199241638184
1711523606892971500,12.007971435546875,-0.07916299998760223,0.2606790065765381,0.4891679883003235
1711523606902617300,12.017617431640625,0.002094999887049198,0.23690399527549744,0.5525109767913818
1711523606912263400,12.027263427734376,0.030778000131249428,0.2110539972782135,0.5139340162277222
1711523606921909200,12.0369091796875,-0.010068000294268131,0.24870599806308746,0.46323201060295105
