time,seconds_elapsed,z,y,x
1711523595018936600,0.1339365234375,9.615071296691895,1.830212950706482,-0.6091870069503784
1711523595028582400,0.14358251953125,9.606206893920898,1.866845965385437,-0.6372219920158386
1711523595038228200,0.153228271484375,9.592246055603027,1.9050309658050537,-0.728056013584137
1711523595047874000,0.1628740234375,9.582722663879395,1.9323350191116333,-0.779679000377655
1711523595057519900,0.172519775390625,9.581151962280273,1.9279710054397583,-0.8092250227928162
1711523595067165400,0.18216552734375,9.576851844787598,1.9381749629974365,-0.8353260159492493
1711523595076811300,0.191811279296875,9.577442169189453,1.94718599319458,-0.8071320056915283
1711523595086457000,0.20145703125,9.578506469726562,1.941409945487976,-0.8084059953689575
1711523595096103000,0.21110302734375,9.579789161682129,1.935075044631958,-0.8083969950675964
1711523595105748700,0.220748779296875,9.581059455871582,1.929075002670288,-0.8076789975166321
1711523595115394600,0.23039453125,9.582140922546387,1.9239569902420044,-0.8070700168609619
1711523595125040000,0.2400400390625,9.582948684692383,1.9199440479278564,-0.8070210218429565
1711523595134686200,0.249686279296875,9.58349895477295,1.9169180393218994,-0.8076850175857544
1711523595144332000,0.25933203125,9.583945274353027,1.9143259525299072,-0.8085409998893738
1711523595153977900,0.268977783203125,9.584604263305664,1.9110310077667236,-0.8085169792175293
1711523595163623400,0.27862353515625,9.585623741149902,1.9065159559249878,-0.8070909976959229
1711523595173269500,0.28826953125,9.586821556091309,1.9011919498443604,-0.805420994758606
1711523595182915300,0.297915283203125,9.590096473693848,1.8897169828414917,-0.7933610081672668
1711523595192561200,0.30756103515625,9.620485305786133,1.7910840511322021,-0.6392589807510376
1711523595202206700,0.317206787109375,9.619961738586426,1.7910449504852295,-0.6472030282020569
1711523595211852500,0.3268525390625,9.619902610778809,1.7904369831085205,-0.6497669816017151
1711523595221498400,0.336498291015625,9.618751525878906,1.7946200370788574,-0.6552479863166809
1711523595231144200,0.346144287109375,9.618789672851562,1.7944129705429077,-0.6552469730377197
1711523595240790000,0.3557900390625,9.619477272033691,1.7942229509353638,-0.645609974861145
1711523595250435600,0.365435546875,9.620443344116211,1.79053795337677,-0.6414179801940918
1711523595260081400,0.375081298828125,9.621767044067383,1.785249948501587,-0.6362900137901306
1711523595269727200,0.384727294921875,9.622562408447266,1.7813400030136108,-0.635237991809845
1711523595279373000,0.394373046875,9.62289047241211,1.7785199880599976,-0.6381589770317078
1711523595289019000,0.404018798828125,9.623115539550781,1.7774349451065063,-0.6377699971199036
1711523595298664700,0.413664794921875,9.622113227844238,1.7816580533981323,-0.6410999894142151
1711523595308310500,0.423310546875,9.621842384338379,1.7833830118179321,-0.6403719782829285
1711523595317956600,0.43295654296875,9.620735168457031,1.790276050567627,-0.6377720236778259
1711523595327602200,0.442602294921875,9.620293617248535,1.7923729419708252,-0.6385319828987122
1711523595337248000,0.452248046875,9.619730949401855,1.7960779666900635,-0.6366180181503296
1711523595346893600,0.4618935546875,9.619646072387695,1.7964320182800293,-0.6368849873542786
1711523595356539400,0.471539306640625,9.619144439697266,1.7982699871063232,-0.639274001121521
1711523595366185200,0.481185302734375,9.619370460510254,1.7972569465637207,-0.6387379765510559
1711523595375831000,0.4908310546875,9.619460105895996,1.7951029539108276,-0.6434069871902466
1711523595385476900,0.500476806640625,9.61952018737793,1.794173002243042,-0.6451069712638855
1711523595395122400,0.510122314453125,9.619579315185547,1.7919859886169434,-0.6502779722213745
1711523595404768300,0.519768310546875,9.619524955749512,1.7918800115585327,-0.6513749957084656
1711523595414414000,0.5294140625,9.619322776794434,1.7915990352630615,-0.6551219820976257
1711523595424060200,0.53906005859375,9.619452476501465,1.7919009923934937,-0.6523810029029846
1711523595433706000,0.5487060546875,9.61938762664795,1.7925570011138916,-0.6515300273895264
1711523595443351800,0.558351806640625,9.619543075561523,1.7930669784545898,-0.647832989692688
1711523595452997400,0.567997314453125,9.619763374328613,1.7930020093917847,-0.6447240114212036
1711523595462643200,0.577643310546875,9.619773864746094,1.7927939891815186,-0.6451510190963745
1711523595472289300,0.587289306640625,9.619747161865234,1.7904009819030762,-0.6521430015563965
1711523595481934800,0.596934814453125,9.619599342346191,1.7895539999008179,-0.6566429734230042
1711523595491580700,0.60658056640625,9.619524955749512,1.7872459888458252,-0.6639890074729919
1711523595501226500,0.6162265625,9.619804382324219,1.7851840257644653,-0.6654809713363647
1711523595510872000,0.6258720703125,9.62064266204834,1.7817449569702148,-0.6625769734382629
1711523595520518100,0.63551806640625,9.62159538269043,1.777485966682434,-0.6601759791374207
1711523595530163700,0.645163818359375,9.622881889343262,1.7726160287857056,-0.6544950008392334
1711523595539809500,0.6548095703125,9.623991012573242,1.767109990119934,-0.6530749797821045
1711523595549455400,0.664455322265625,9.624908447265625,1.7635060548782349,-0.6492800116539001
1711523595559101200,0.67410107421875,9.62565803527832,1.7595770359039307,-0.6488190293312073
1711523595568746800,0.683746826171875,9.626242637634277,1.7594239711761475,-0.6405180096626282
1711523595578392600,0.693392578125,9.626321792602539,1.7585949897766113,-0.6416000127792358
1711523595588038400,0.703038330078125,9.62696647644043,1.7595789432525635,-0.6291189789772034
1711523595597684200,0.712684326171875,9.626629829406738,1.7606929540634155,-0.6311569809913635
1711523595607330000,0.722330078125,9.625927925109863,1.7680280208587646,-0.6212720274925232
1711523595616975600,0.7319755859375,9.625373840332031,1.7717230319976807,-0.6193180084228516
1711523595626621400,0.741621337890625,9.623570442199707,1.7838510274887085,-0.6125029921531677
1711523595636267300,0.751267333984375,9.622751235961914,1.7890779972076416,-0.6101279854774475
1711523595645913000,0.7609130859375,9.619819641113281,1.8053369522094727,-0.6084510087966919
1711523595655559200,0.77055908203125,9.619160652160645,1.80901300907135,-0.6079540252685547
1711523595665204700,0.780204833984375,9.616850852966309,1.8225380182266235,-0.6040840148925781
1711523595674850600,0.7898505859375,9.616806030273438,1.822532057762146,-0.6048219799995422
1711523595684496400,0.799496337890625,9.616532325744629,1.825456976890564,-0.6003320217132568
1711523595694142200,0.80914208984375,9.617152214050293,1.8221149444580078,-0.6005579829216003
1711523595703787800,0.818787841796875,9.618341445922852,1.8166539669036865,-0.5980349779129028
1711523595713433600,0.82843359375,9.618855476379395,1.813873052597046,-0.5982459783554077
1711523595723079700,0.83807958984375,9.619711875915527,1.8084269762039185,-0.6009340286254883
1711523595732725200,0.847725341796875,9.619550704956055,1.8085999488830566,-0.6029880046844482
1711523595742371300,0.857371337890625,9.619619369506836,1.8069020509719849,-0.60698002576828
1711523595752017000,0.867016845703125,9.619168281555176,1.8084360361099243,-0.6095499992370605
1711523595761662700,0.876662841796875,9.618295669555664,1.8111170530319214,-0.615323007106781
1711523595771308500,0.88630859375,9.618358612060547,1.810351014137268,-0.6165919899940491
1711523595780954000,0.8959541015625,9.618114471435547,1.809993028640747,-0.6214410066604614
1711523595790600000,0.905599853515625,9.618942260742188,1.80513596534729,-0.6227390170097351
1711523595800245800,0.915245849609375,9.618535041809082,1.8041919469833374,-0.6317239999771118
1711523595809891600,0.9248916015625,9.619494438171387,1.7982840538024902,-0.6339550018310547
1711523595819537400,0.934537353515625,9.620012283325195,1.7952220439910889,-0.6347619891166687
1711523595829183200,0.944183349609375,9.621061325073242,1.7896209955215454,-0.6346799731254578
1711523595838829000,0.9538291015625,9.621306419372559,1.790835976600647,-0.6275050044059753
1711523595848475000,0.963474853515625,9.62216854095459,1.7867389917373657,-0.6259509921073914
1711523595858120400,0.973120361328125,9.622099876403809,1.789747953414917,-0.6183609962463379
1711523595867766300,0.982766357421875,9.622602462768555,1.786829948425293,-0.6189960241317749
1711523595877412400,0.992412353515625,9.62309741973877,1.786476969718933,-0.612280011177063
1711523595887058000,1.002057861328125,9.623844146728516,1.7828190326690674,-0.611204981803894
1711523595896703700,1.011703857421875,9.623936653137207,1.7832260131835938,-0.6085690259933472
1711523595906349600,1.021349609375,9.624434471130371,1.7804280519485474,-0.6088730096817017
1711523595915995400,1.030995361328125,9.622997283935547,1.7860100269317627,-0.6152169704437256
1711523595925641200,1.04064111328125,9.622847557067871,1.785578966140747,-0.618806004524231
1711523595935287000,1.050287109375,9.620902061462402,1.7939079999923706,-0.624921977519989
1711523595944932600,1.0599326171875,9.621014595031738,1.792788028717041,-0.6264010071754456
1711523595954578400,1.069578369140625,9.619999885559082,1.7996350526809692,-0.6223329901695251
1711523595964224300,1.079224365234375,9.620660781860352,1.7964650392532349,-0.6212610006332397
1711523595973870000,1.0888701171875,9.620508193969727,1.7982889413833618,-0.6183480024337769
1711523595983515600,1.098515625,9.621030807495117,1.7954440116882324,-0.6184890270233154
1711523595993161500,1.108161376953125,9.62157917022705,1.7932430505752563,-0.6163390278816223
1711523596002807300,1.117807373046875,9.621743202209473,1.7923799753189087,-0.6162819862365723
1711523596012453000,1.127453125,9.62166690826416,1.792978048324585,-0.6157320141792297
1711523596022099000,1.137098876953125,9.62135124206543,1.7947670221328735,-0.6154760122299194
1711523596031745000,1.1467451171875,9.620678901672363,1.7987550497055054,-0.6143230199813843
1711523596041390600,1.156390625,9.620139122009277,1.8018900156021118,-0.6135960221290588
1711523596051036400,1.166036376953125,9.619542121887207,1.807273030281067,-0.6071000099182129
1711523596060682000,1.175681884765625,9.619288444519043,1.8093149662017822,-0.6050260066986084
1711523596070328000,1.185328125,9.619063377380371,1.8132870197296143,-0.5966650247573853
1711523596079973600,1.1949736328125,9.618973731994629,1.8140380382537842,-0.5958049893379211
1711523596089619700,1.20461962890625,9.619475364685059,1.8134369850158691,-0.5894970297813416
1711523596099265300,1.214265380859375,9.619629859924316,1.8130220174789429,-0.5882750153541565
1711523596108911000,1.2239111328125,9.619651794433594,1.8146129846572876,-0.58297199010849
1711523596118557000,1.233556884765625,9.619481086730957,1.815951943397522,-0.5816270112991333
1711523596128202800,1.24320263671875,9.61882495880127,1.8214110136032104,-0.5753690004348755
1711523596137848600,1.2528486328125,9.618315696716309,1.824228048324585,-0.5749449729919434
1711523596147494400,1.262494384765625,9.617570877075195,1.8295799493789673,-0.570393979549408
1711523596157140000,1.272139892578125,9.617152214050293,1.8319740295410156,-0.569769024848938
1711523596166785800,1.281785888671875,9.617595672607422,1.8318849802017212,-0.5625309944152832
1711523596176431600,1.291431640625,9.618013381958008,1.8310010433197021,-0.5582370162010193
1711523596186077400,1.301077392578125,9.617687225341797,1.8325159549713135,-0.5588889718055725
1711523596195723000,1.310722900390625,9.617989540100098,1.8309990167617798,-0.5586689710617065
1711523596205368800,1.320368896484375,9.61789321899414,1.827631950378418,-0.5712059736251831
1711523596215014700,1.3300146484375,9.617562294006348,1.8282170295715332,-0.5749009847640991
1711523596224660500,1.339660400390625,9.616399765014648,1.8280420303344727,-0.5945619940757751
1711523596234306300,1.349306396484375,9.615307807922363,1.8329800367355347,-0.5970159769058228
1711523596243951900,1.358951904296875,9.612898826599121,1.8393909931182861,-0.6157870292663574
1711523596253598000,1.368597900390625,9.611651420593262,1.8451650142669678,-0.6179800033569336
1711523596263243800,1.378243896484375,9.607704162597656,1.8567609786987305,-0.6440799832344055
1711523596272889300,1.387889404296875,9.607044219970703,1.8585059642791748,-0.6488800048828125
1711523596282535400,1.397535400390625,9.60408878326416,1.862975001335144,-0.6790990233421326
1711523596292181200,1.40718115234375,9.604740142822266,1.8571369647979736,-0.6858580112457275
1711523596301827000,1.4168271484375,9.60287094116211,1.853721022605896,-0.7203999757766724
1711523596311472600,1.42647265625,9.603799819946289,1.8455140590667725,-0.7290390133857727
1711523596321118500,1.436118408203125,9.600711822509766,1.8441460132598877,-0.7719110250473022
1711523596330764300,1.445764404296875,9.600717544555664,1.8398569822311401,-0.7819910049438477
1711523596340410000,1.45541015625,9.594234466552734,1.855309009552002,-0.8239529728889465
1711523596350056000,1.465055908203125,9.59305191040039,1.8586440086364746,-0.8301740288734436
1711523596359701500,1.474701416015625,9.583595275878906,1.8929539918899536,-0.8612849712371826
1711523596369347300,1.484347412109375,9.582411766052246,1.8990980386734009,-0.8609269857406616
1711523596378993200,1.4939931640625,9.572479248046875,1.9408769607543945,-0.8780850172042847
1711523596388639000,1.503638916015625,9.57250690460205,1.9432090520858765,-0.8726000189781189
1711523596398284800,1.513284912109375,9.565109252929688,1.9767639636993408,-0.8783360123634338
1711523596407930400,1.522930419921875,9.566617012023926,1.9716130495071411,-0.8734769821166992
1711523596417576200,1.532576171875,9.562126159667969,1.9916870594024658,-0.8771070241928101
1711523596427222000,1.542221923828125,9.564927101135254,1.9787720441818237,-0.8757969737052917
1711523596436868000,1.5518681640625,9.56199836730957,1.9890409708023071,-0.884477972984314
1711523596446513700,1.561513671875,9.566000938415527,1.9688019752502441,-0.8864700198173523
1711523596456159500,1.571159423828125,9.564667701721191,1.9673219919204712,-0.9039700031280518
1711523596465805300,1.580805419921875,9.569640159606934,1.9414260387420654,-0.9073160290718079
1711523596475451100,1.590451171875,9.571643829345703,1.9264730215072632,-0.9180009961128235
1711523596485097000,1.600096923828125,9.57812213897705,1.895203948020935,-0.9155060052871704
1711523596494742800,1.60974267578125,9.583293914794922,1.8713419437408447,-0.9104719758033752
1711523596504388400,1.619388427734375,9.590606689453125,1.837453007698059,-0.9024509787559509
1711523596514034200,1.6290341796875,9.594924926757812,1.8177260160446167,-0.8964840173721313
1711523596523680300,1.63868017578125,9.601333618164062,1.7871350049972534,-0.8893349766731262
1711523596533325800,1.648325927734375,9.603825569152832,1.7770719528198242,-0.8825690150260925
1711523596542971600,1.6579716796875,9.609052658081055,1.7514959573745728,-0.8767849802970886
1711523596552617500,1.667617431640625,9.610593795776367,1.7493380308151245,-0.8641179800033569
1711523596562263300,1.67726318359375,9.615507125854492,1.7262170314788818,-0.8559079766273499
1711523596571909000,1.6869091796875,9.617799758911133,1.7220209836959839,-0.8384320139884949
1711523596581555000,1.696554931640625,9.622462272644043,1.7012640237808228,-0.8272370100021362
1711523596591200500,1.706200439453125,9.623966217041016,1.6996389627456665,-0.8129510283470154
1711523596600846300,1.715846435546875,9.627671241760254,1.6859209537506104,-0.7975019812583923
1711523596610492200,1.7254921875,9.62673282623291,1.6953890323638916,-0.7887089848518372
1711523596620138000,1.735137939453125,9.629261016845703,1.6885249614715576,-0.7723919749259949
1711523596629783600,1.744783447265625,9.624307632446289,1.7149560451507568,-0.7758870124816895
1711523596639429400,1.754429443359375,9.62602424621582,1.7102739810943604,-0.7648599743843079
1711523596649075500,1.764075439453125,9.619905471801758,1.7382580041885376,-0.7786409854888916
1711523596658721000,1.773720947265625,9.62168025970459,1.7311350107192993,-0.7725520133972168
1711523596668366800,1.783366943359375,9.616286277770996,1.7532639503479004,-0.7896050214767456
1711523596678012700,1.7930126953125,9.617758750915527,1.7462140321731567,-0.7872980237007141
1711523596687658500,1.802658447265625,9.612048149108887,1.771265983581543,-0.8009529709815979
1711523596697304000,1.812303955078125,9.613628387451172,1.7654550075531006,-0.7947980165481567
1711523596706950000,1.821949951171875,9.608499526977539,1.7914899587631226,-0.7985450029373169
1711523596716596000,1.831595947265625,9.610915184020996,1.7849390506744385,-0.7840200066566467
1711523596726241500,1.841241455078125,9.60853099822998,1.8025729656219482,-0.7728170156478882
1711523596735887400,1.850887451171875,9.612271308898926,1.7934939861297607,-0.7469879984855652
1711523596745533200,1.860533203125,9.610997200012207,1.810250997543335,-0.7225720286369324
1711523596755179000,1.870178955078125,9.614561080932617,1.8036179542541504,-0.6910560131072998
1711523596764824800,1.879824951171875,9.612027168273926,1.8279789686203003,-0.6616759896278381
1711523596774470400,1.889470458984375,9.614073753356934,1.8266769647598267,-0.6349850296974182
1711523596784116500,1.899116455078125,9.611083984375,1.8549100160598755,-0.5972899794578552
1711523596793762000,1.908761962890625,9.612166404724121,1.8560290336608887,-0.5760030150413513
1711523596803408000,1.918407958984375,9.60932445526123,1.8819819688796997,-0.5379930138587952
1711523596813053700,1.9280537109375,9.60932445526123,1.8865580558776855,-0.5216829776763916
1711523596822699500,1.937699462890625,9.60605239868164,1.9121320247650146,-0.487731009721756
1711523596832345300,1.947345458984375,9.604276657104492,1.9246859550476074,-0.47311198711395264
1711523596841991200,1.9569912109375,9.59833812713623,1.9573999643325806,-0.4592230021953583
1711523596851637000,1.966636962890625,9.594791412353516,1.977107048034668,-0.44877201318740845
1711523596861282600,1.976282470703125,9.58773422241211,2.009305953979492,-0.4565500020980835
1711523596870928400,1.985928466796875,9.585185050964355,2.0235300064086914,-0.4471510052680969
1711523596880574500,1.995574462890625,9.581561088562012,2.0355939865112305,-0.4694890081882477
1711523596890220300,2.00522021484375,9.582071304321289,2.0345919132232666,-0.4634140133857727
1711523596899865900,2.014865966796875,9.587546348571777,2.005255937576294,-0.47780099511146545
1711523596909511700,2.02451171875,9.590703010559082,1.991204023361206,-0.4731859862804413
1711523596919157500,2.034157470703125,9.60288143157959,1.9308409690856934,-0.47633400559425354
1711523596928803300,2.04380322265625,9.605854988098145,1.918125033378601,-0.4676870107650757
1711523596938449200,2.05344921875,9.619348526000977,1.8524479866027832,-0.4549170136451721
1711523596948094700,2.0630947265625,9.619134902954102,1.8560960292816162,-0.4444560110569
1711523596957740500,2.072740478515625,9.629840850830078,1.8042479753494263,-0.42573100328445435
1711523596967386400,2.082386474609375,9.626383781433105,1.8246150016784668,-0.4169969856739044
1711523596977032200,2.0920322265625,9.633182525634766,1.791511058807373,-0.40333500504493713
1711523596986678000,2.101677978515625,9.628350257873535,1.8185659646987915,-0.39757901430130005
1711523596996324000,2.111323974609375,9.636789321899414,1.7804080247879028,-0.3644610047340393
1711523597005969700,2.1209697265625,9.63410758972168,1.7981330156326294,-0.34797000885009766
1711523597015615500,2.130615478515625,9.643121719360352,1.7579779624938965,-0.30018100142478943
1711523597025261000,2.140260986328125,9.643132209777832,1.7611379623413086,-0.28067898750305176
1711523597034907100,2.1499072265625,9.654773712158203,1.7039999961853027,-0.2282709926366806
1711523597044553000,2.159552978515625,9.65699577331543,1.692276954650879,-0.22140200436115265
1711523597054198500,2.169198486328125,9.670177459716797,1.6189639568328857,-0.19239799678325653
1711523597063844400,2.17884423828125,9.673145294189453,1.6005779504776,-0.19696000218391418
1711523597073490200,2.188490234375,9.685214042663574,1.528033971786499,-0.1792300045490265
1711523597083136000,2.198135986328125,9.687538146972656,1.512650966644287,-0.1840749979019165
1711523597092781800,2.20778173828125,9.698999404907227,1.4407199621200562,-0.15532299876213074
1711523597102427400,2.217427490234375,9.700616836547852,1.4299590587615967,-0.15371200442314148
1711523597112073500,2.227073486328125,9.710928916931152,1.3613120317459106,-0.12281599640846252
1711523597121719300,2.23671923828125,9.71157169342041,1.3568669557571411,-0.1211709976196289
1711523597131365000,2.246365234375,9.719846725463867,1.2982579469680786,-0.09747400134801865
1711523597141010700,2.2560107421875,9.71957015991211,1.300091028213501,-0.10057000070810318
1711523597150656500,2.265656494140625,9.727197647094727,1.243980050086975,-0.0672369971871376
1711523597160302300,2.27530224609375,9.726780891418457,1.2469170093536377,-0.07294599711894989
1711523597169948200,2.2849482421875,9.732610702514648,1.2016249895095825,-0.05269800126552582
1711523597179593700,2.29459375,9.732077598571777,1.2054840326309204,-0.06211400032043457
1711523597189239600,2.304239501953125,9.735540390014648,1.1773170232772827,-0.05978500097990036
1711523597198885600,2.3138857421875,9.735151290893555,1.1801209449768066,-0.06736200302839279
1711523597208531200,2.32353125,9.737732887268066,1.1588469743728638,-0.06335300207138062
1711523597218177000,2.333177001953125,9.737773895263672,1.158102035522461,-0.070421002805233
1711523597227823000,2.342822998046875,9.739834785461426,1.140550971031189,-0.07177700102329254
1711523597237469000,2.352468994140625,9.740047454833984,1.1378439664840698,-0.08480700105428696
1711523597247114800,2.36211474609375,9.741459846496582,1.1243900060653687,-0.10049600154161453
1711523597256760300,2.37176025390625,9.742059707641602,1.1176400184631348,-0.11635500192642212
1711523597266406100,2.38140625,9.742467880249023,1.1108269691467285,-0.1441420018672943
1711523597276051700,2.3910517578125,9.743538856506348,1.098628044128418,-0.16387200355529785
1711523597285697500,2.400697509765625,9.744982719421387,1.0804320573806763,-0.19586500525474548
1711523597295343400,2.41034326171875,9.746485710144043,1.0623799562454224,-0.21856999397277832
1711523597304989200,2.4199892578125,9.749431610107422,1.0281230211257935,-0.24887700378894806
1711523597314635300,2.42963525390625,9.750868797302246,1.0103039741516113,-0.2650040090084076
1711523597324280800,2.43928076171875,9.753466606140137,0.977524995803833,-0.29108500480651855
1711523597333927000,2.448927001953125,9.754053115844727,0.9694560170173645,-0.2982940077781677
1711523597343572500,2.458572509765625,9.755094528198242,0.9532210230827332,-0.31604498624801636
1711523597353218300,2.46821826171875,9.75473403930664,0.9553809762001038,-0.3206290006637573
1711523597362864000,2.477864013671875,9.75438117980957,0.9565399885177612,-0.32780998945236206
1711523597372510000,2.487510009765625,9.753528594970703,0.9625890254974365,-0.3354089856147766
1711523597382155800,2.49715576171875,9.75163745880127,0.9813470244407654,-0.3360599875450134
1711523597391801600,2.506801513671875,9.750896453857422,0.9836750030517578,-0.3504199981689453
1711523597401447400,2.516447509765625,9.749488830566406,0.9985160231590271,-0.34756800532341003
1711523597411093000,2.526093017578125,9.749759674072266,0.9909449815750122,-0.3614009916782379
1711523597420738800,2.53573876953125,9.749964714050293,0.9913489818572998,-0.35467401146888733
1711523597430384600,2.545384521484375,9.750837326049805,0.9796710014343262,-0.36302798986434937
1711523597440030500,2.555030517578125,9.750935554504395,0.9843159914016724,-0.3475340008735657
1711523597449676000,2.564676025390625,9.751542091369629,0.9779080152511597,-0.34858301281929016
1711523597459322000,2.574322021484375,9.750433921813965,0.9940400123596191,-0.333638995885849
1711523597468968000,2.583968017578125,9.750211715698242,0.9972019791603088,-0.3306640088558197
1711523597478613800,2.59361376953125,9.747257232666016,1.028756022453308,-0.32095998525619507
1711523597488259300,2.60325927734375,9.746180534362793,1.0392669439315796,-0.319786012172699
1711523597497905200,2.6129052734375,9.741843223571777,1.0805000066757202,-0.3152709901332855
1711523597507551000,2.622551025390625,9.740813255310059,1.0903249979019165,-0.3132309913635254
1711523597517196500,2.632196533203125,9.735966682434082,1.135241985321045,-0.30424898862838745
1711523597526842400,2.64184228515625,9.735345840454102,1.14069402217865,-0.30371299386024475
1711523597536488200,2.65148828125,9.731254577636719,1.179934024810791,-0.28431200981140137
1711523597546134000,2.661134033203125,9.731383323669434,1.179286003112793,-0.2825610041618347
1711523597555779800,2.67077978515625,9.729401588439941,1.202873945236206,-0.24945299327373505
1711523597565425700,2.68042578125,9.730546951293945,1.194964051246643,-0.2427159994840622
1711523597575071500,2.690071533203125,9.730051040649414,1.2057629823684692,-0.20649899542331696
1711523597584717300,2.69971728515625,9.731623649597168,1.1943299770355225,-0.19862399995326996
1711523597594363100,2.709363037109375,9.732301712036133,1.1934080123901367,-0.16875199973583221
1711523597604009000,2.719009033203125,9.733616828918457,1.1833289861679077,-0.16373200714588165
1711523597613654800,2.72865478515625,9.734132766723633,1.1818770170211792,-0.14222300052642822
1711523597623300600,2.738300537109375,9.734418869018555,1.1798410415649414,-0.13946400582790375
1711523597632946200,2.7479462890625,9.732722282409668,1.1949700117111206,-0.1285790055990219
1711523597642592300,2.75759228515625,9.731680870056152,1.2031129598617554,-0.1315319985151291
1711523597652238000,2.767238037109375,9.728738784790039,1.2274689674377441,-0.12384100258350372
1711523597661884000,2.7768837890625,9.726932525634766,1.2409789562225342,-0.13093499839305878
1711523597671529500,2.786529541015625,9.725144386291504,1.2572389841079712,-0.10634899884462357
1711523597681175300,2.79617529296875,9.723846435546875,1.2676520347595215,-0.10127300024032593
1711523597690821400,2.8058212890625,9.722851753234863,1.2773020267486572,-0.07106500118970871
1711523597700467000,2.815467041015625,9.722135543823242,1.2833590507507324,-0.05878400057554245
1711523597710112800,2.82511279296875,9.720806121826172,1.2937719821929932,-0.049651000648736954
1711523597719758800,2.8347587890625,9.720124244689941,1.2992539405822754,-0.03868599981069565
1711523597729404700,2.84440478515625,9.718387603759766,1.3123259544372559,-0.03357499837875366
1711523597739050200,2.85405029296875,9.718173027038574,1.3141249418258667,-0.023716000840067863
1711523597748696000,2.863696044921875,9.718716621398926,1.3103100061416626,0.0011680000461637974
1711523597758342000,2.873341796875,9.71976375579834,1.3024729490280151,0.012164999730885029
1711523597767987700,2.88298779296875,9.723756790161133,1.2716549634933472,0.042938001453876495
1711523597777633300,2.89263330078125,9.726103782653809,1.2530269622802734,0.05660700052976608
1711523597787279000,2.902279052734375,9.730834007263184,1.215528964996338,0.06117299944162369
1711523597796925000,2.911925048828125,9.733633041381836,1.192283034324646,0.07234299927949905
1711523597806570800,2.92157080078125,9.738275527954102,1.154865026473999,0.05164000019431114
1711523597816216600,2.931216552734375,9.740565299987793,1.1352269649505615,0.05504399910569191
1711523597825862400,2.9408623046875,9.745214462280273,1.0956289768218994,0.028418000787496567
1711523597835508200,2.95050830078125,9.746526718139648,1.0839780569076538,0.024390000849962234
1711523597845154300,2.960154296875,9.749855041503906,1.0538820028305054,-0.0067900000140070915
1711523597854800000,2.9697998046875,9.75052261352539,1.04762601852417,-0.013290000148117542
1711523597864445700,2.97944580078125,9.753761291503906,1.016389012336731,-0.03857500106096268
1711523597874091500,2.989091552734375,9.754478454589844,1.00941801071167,-0.04041700065135956
1711523597883737300,2.9987373046875,9.757476806640625,0.9780160188674927,-0.07431100308895111
1711523597893383200,3.008383056640625,9.758173942565918,0.9712920188903809,-0.07077000290155411
1711523597903028700,3.01802880859375,9.761301040649414,0.9358130097389221,-0.10793200135231018
1711523597912674800,3.0276748046875,9.76191520690918,0.9296330213546753,-0.10576900094747543
1711523597922320600,3.037320556640625,9.765218734741211,0.8883810043334961,-0.14720000326633453
1711523597931966200,3.04696630859375,9.766313552856445,0.8763689994812012,-0.146573007106781
1711523597941612000,3.056612060546875,9.770247459411621,0.8223509788513184,-0.19076399505138397
1711523597951257900,3.0662578125,9.771968841552734,0.8008149862289429,-0.19415299594402313
1711523597960904000,3.075904052734375,9.775449752807617,0.7447599768638611,-0.23726899921894073
1711523597970549800,3.0855498046875,9.777078628540039,0.7195069789886475,-0.2478339970111847
1711523597980195300,3.0951953125,9.779007911682129,0.6763259768486023,-0.28981098532676697
1711523597989841000,3.1048408203125,9.779451370239258,0.6620399951934814,-0.30726999044418335
1711523597999487000,3.114487060546875,9.779865264892578,0.6451699733734131,-0.3291960060596466
1711523598009132800,3.1241328125,9.779301643371582,0.6459400057792664,-0.3440999984741211
1711523598018778600,3.133778564453125,9.779598236083984,0.64370197057724,-0.33985599875450134
1711523598028424200,3.143424072265625,9.778873443603516,0.6525899767875671,-0.34373798966407776
1711523598038070300,3.1530703125,9.778518676757812,0.6636829972267151,-0.3323659896850586
1711523598047715800,3.1627158203125,9.777786254882812,0.6782770156860352,-0.3243829905986786
1711523598057361700,3.172361572265625,9.775947570800781,0.7049729824066162,-0.32285499572753906
1711523598067007500,3.182007568359375,9.775041580200195,0.7236930131912231,-0.30855798721313477
1711523598076653300,3.1916533203125,9.773029327392578,0.7524870038032532,-0.3033609986305237
1711523598086299100,3.201299072265625,9.772809982299805,0.7627739906311035,-0.284170001745224
1711523598095945000,3.210945068359375,9.774308204650879,0.7567059993743896,-0.24631500244140625
1711523598105590800,3.2205908203125,9.776054382324219,0.7406799793243408,-0.22481399774551392
1711523598115236400,3.230236328125,9.78062915802002,0.6907219886779785,-0.18050600588321686
1711523598124882200,3.239882080078125,9.783750534057617,0.6488789916038513,-0.16598199307918549
1711523598134528000,3.249528076171875,9.78882122039795,0.5720130205154419,-0.14884500205516815
1711523598144173800,3.259173828125,9.791417121887207,0.525829017162323,-0.14846199750900269
1711523598153819600,3.268819580078125,9.794236183166504,0.46614399552345276,-0.1613679975271225
1711523598163465500,3.278465576171875,9.795310020446777,0.4394010007381439,-0.17087799310684204
1711523598173111300,3.288111328125,9.796341896057129,0.40701600909233093,-0.19080400466918945
1711523598182757400,3.29775732421875,9.796271324157715,0.40445199608802795,-0.1996690034866333
1711523598192403200,3.3074033203125,9.796006202697754,0.40321099758148193,-0.21463799476623535
1711523598202049000,3.317049072265625,9.79559326171875,0.41312700510025024,-0.21458299458026886
1711523598211694800,3.32669482421875,9.794116020202637,0.43655699491500854,-0.2347320020198822
1711523598221340700,3.336340576171875,9.7936372756958,0.4476340115070343,-0.233815997838974
1711523598230986500,3.345986572265625,9.791321754455566,0.48330798745155334,-0.2585040032863617
1711523598240632000,3.355632080078125,9.790891647338867,0.4893699884414673,-0.26330000162124634
1711523598250278000,3.36527783203125,9.788464546203613,0.5243009924888611,-0.2853820025920868
1711523598259923700,3.374923828125,9.788437843322754,0.5219979882240295,-0.29047301411628723
1711523598269569500,3.384569580078125,9.787063598632812,0.5443360209465027,-0.29572799801826477
1711523598279215400,3.39421533203125,9.78783130645752,0.531665027141571,-0.29338398575782776
1711523598288861000,3.40386083984375,9.787501335144043,0.5418670177459717,-0.28563499450683594
1711523598298506800,3.4135068359375,9.788578987121582,0.5245519876480103,-0.2809950113296509
1711523598308152600,3.423152587890625,9.788232803344727,0.5317620038986206,-0.2795259952545166
1711523598317798400,3.43279833984375,9.789292335510254,0.5145159959793091,-0.274601012468338
1711523598327444200,3.4424443359375,9.78829574584961,0.528626024723053,-0.28321200609207153
1711523598337090000,3.452090087890625,9.789129257202148,0.5130890011787415,-0.28297099471092224
1711523598346735900,3.46173583984375,9.787907600402832,0.5335819721221924,-0.2873010039329529
1711523598356381700,3.471381591796875,9.788741111755371,0.5176050066947937,-0.2881309986114502
1711523598366027300,3.48102734375,9.787506103515625,0.5408710241317749,-0.2873559892177582
1711523598375673300,3.49067333984375,9.788229942321777,0.5264959931373596,-0.28936898708343506
1711523598385319200,3.500319091796875,9.78671932220459,0.5555670261383057,-0.28609898686408997
1711523598394965000,3.509965087890625,9.787215232849121,0.5453270077705383,-0.28883498907089233
1711523598404610800,3.51961083984375,9.785043716430664,0.58126300573349,-0.292279988527298
1711523598414256600,3.529256591796875,9.785380363464355,0.5746260285377502,-0.2941550016403198
1711523598423902500,3.53890234375,9.783190727233887,0.6104410290718079,-0.29480698704719543
1711523598433548300,3.54854833984375,9.78341293334961,0.6075159907341003,-0.2935180068016052
1711523598443194000,3.558194091796875,9.781084060668945,0.6441839933395386,-0.2929550111293793
1711523598452840000,3.56783984375,9.7811861038208,0.6447389721870422,-0.2882719933986664
1711523598462485800,3.57748583984375,9.77912425994873,0.6778879761695862,-0.28210198879241943
1711523598472131600,3.587131591796875,9.779099464416504,0.6808639764785767,-0.2757689952850342
1711523598481777400,3.59677734375,9.776787757873535,0.7137699723243713,-0.2744309902191162
1711523598491423200,3.60642333984375,9.776280403137207,0.7214130163192749,-0.27256500720977783
1711523598501069000,3.616069091796875,9.77367115020752,0.7551569938659668,-0.2747200131416321
1711523598510714600,3.625714599609375,9.773004531860352,0.7654410004615784,-0.26989901065826416
1711523598520360700,3.635360595703125,9.770575523376465,0.7951229810714722,-0.2720560133457184
1711523598530006500,3.645006591796875,9.769805908203125,0.8082470297813416,-0.2607870101928711
1711523598539652400,3.65465234375,9.766915321350098,0.8415070176124573,-0.26385098695755005
1711523598549298000,3.6642978515625,9.765162467956543,0.8633490204811096,-0.2581009864807129
1711523598558943700,3.67394384765625,9.760589599609375,0.9093800187110901,-0.27260300517082214
1711523598568589600,3.683589599609375,9.757634162902832,0.940205991268158,-0.27379199862480164
1711523598578235400,3.6932353515625,9.754660606384277,0.9721260070800781,-0.26822298765182495
1711523598587881200,3.702881103515625,9.752043724060059,0.9989460110664368,-0.2648319900035858
1711523598597527000,3.712527099609375,9.749696731567383,1.0213780403137207,-0.2656869888305664
1711523598607172900,3.7221728515625,9.747690200805664,1.0403310060501099,-0.26575401425361633
1711523598616818700,3.731818603515625,9.746538162231445,1.0459849834442139,-0.2851180136203766
1711523598626464300,3.74146435546875,9.744501113891602,1.0623749494552612,-0.29403701424598694
1711523598636110300,3.7511103515625,9.746088027954102,1.043853998184204,-0.3074530065059662
1711523598645756200,3.760756103515625,9.744253158569336,1.0590449571609497,-0.31360000371932983
1711523598655402000,3.770402099609375,9.745315551757812,1.0437819957733154,-0.3312619924545288
1711523598665047800,3.7800478515625,9.743475914001465,1.059959053993225,-0.333979994058609
1711523598674693600,3.789693603515625,9.745485305786133,1.0392110347747803,-0.3405109941959381
1711523598684339500,3.79933935546875,9.744123458862305,1.0517499446868896,-0.3410159945487976
1711523598693985300,3.8089853515625,9.747783660888672,1.018038034439087,-0.3386470079421997
1711523598703631000,3.818631103515625,9.747095108032227,1.0253249406814575,-0.3365130126476288
1711523598713277000,3.82827685546875,9.752503395080566,0.9775059819221497,-0.32176700234413147
1711523598722922800,3.8379228515625,9.752358436584473,0.9812089800834656,-0.314844012260437
1711523598732568300,3.847568359375,9.75796890258789,0.9300159811973572,-0.2958019971847534
1711523598742214400,3.85721435546875,9.75749397277832,0.934952974319458,-0.2959359884262085
1711523598751860200,3.866860107421875,9.762370109558105,0.8874229788780212,-0.2810719907283783
1711523598761506000,3.876506103515625,9.761561393737793,0.8926870226860046,-0.29228100180625916
1711523598771152000,3.88615185546875,9.764704704284668,0.8574489951133728,-0.2927449941635132
1711523598780797700,3.895797607421875,9.763874053955078,0.8605769872665405,-0.3107469975948334
1711523598790443500,3.905443603515625,9.766690254211426,0.8265399932861328,-0.31459298729896545
1711523598800089300,3.91508935546875,9.766279220581055,0.824865996837616,-0.33135300874710083
1711523598809735200,3.924735107421875,9.769946098327637,0.7802680134773254,-0.3312230110168457
1711523598819381000,3.934381103515625,9.769923210144043,0.7742540240287781,-0.3457069993019104
1711523598829026800,3.94402685546875,9.774032592773438,0.7196789979934692,-0.3474760055541992
1711523598838672600,3.953672607421875,9.77383041381836,0.7131350040435791,-0.36613601446151733
1711523598848318200,3.963318115234375,9.77632999420166,0.6668890118598938,-0.3860349953174591
1711523598857964000,3.972964111328125,9.775651931762695,0.663657009601593,-0.4081389904022217
1711523598867609900,3.98260986328125,9.777639389038086,0.6242560148239136,-0.42243900895118713
1711523598877255700,3.992255615234375,9.777121543884277,0.6223570108413696,-0.43696799874305725
1711523598886901800,4.00190185546875,9.779534339904785,0.5909079909324646,-0.42651599645614624
1711523598896547600,4.011547607421875,9.7793550491333,0.5878440141677856,-0.434798002243042
1711523598906193200,4.021193115234375,9.782307624816895,0.55793297290802,-0.40688401460647583
1711523598915839000,4.0308388671875,9.782489776611328,0.5502269864082336,-0.4129520058631897
1711523598925485000,4.040485107421875,9.784584999084473,0.5288050174713135,-0.3907029926776886
1711523598935131000,4.050130859375,9.784978866577148,0.5179200172424316,-0.39539098739624023
1711523598944776700,4.059776611328125,9.785407066345215,0.5122969746589661,-0.39210501313209534
1711523598954422500,4.069422607421875,9.785674095153809,0.5038949847221375,-0.3963029980659485
1711523598964068000,4.079068115234375,9.785544395446777,0.5062969923019409,-0.3964569866657257
1711523598973714000,4.0887138671875,9.785785675048828,0.5021229982376099,-0.39579200744628906
1711523598983359700,4.09835986328125,9.785711288452148,0.5050740242004395,-0.3938629925251007
1711523598993005600,4.108005615234375,9.785970687866211,0.502659022808075,-0.39052700996398926
1711523599002651400,4.1176513671875,9.786141395568848,0.5056679844856262,-0.38225001096725464
1711523599012297200,4.127297119140625,9.786545753479004,0.5006759762763977,-0.37846100330352783
1711523599021943000,4.136943115234375,9.787054061889648,0.49741798639297485,-0.36949700117111206
1711523599031588900,4.1465888671875,9.787367820739746,0.489439994096756,-0.37185001373291016
1711523599041234700,4.156234619140625,9.787379264831543,0.4868530035018921,-0.3749229907989502
1711523599050880500,4.165880615234375,9.787631034851074,0.4754369854927063,-0.38290101289749146
1711523599060526300,4.1755263671875,9.788097381591797,0.4661310017108917,-0.38244399428367615
1711523599070172400,4.18517236328125,9.788617134094238,0.45016399025917053,-0.38822001218795776
1711523599079818200,4.194818359375,9.789423942565918,0.4327070116996765,-0.38771799206733704
1711523599089463800,4.2044638671875,9.790034294128418,0.41666799783706665,-0.3898620009422302
1711523599099109600,4.214109619140625,9.790884971618652,0.40154799818992615,-0.38433700799942017
1711523599108755500,4.22375537109375,9.791316032409668,0.3896540105342865,-0.38561999797821045
1711523599118401300,4.2334013671875,9.791695594787598,0.38659000396728516,-0.37898099422454834
1711523599128047000,4.243047119140625,9.79178524017334,0.37928900122642517,-0.38402101397514343
1711523599137693000,4.25269287109375,9.791894912719727,0.3831619918346405,-0.3773080110549927
1711523599147338800,4.2623388671875,9.791902542114258,0.3769550025463104,-0.38332399725914
1711523599156984600,4.271984619140625,9.791939735412598,0.385998010635376,-0.37323299050331116
1711523599166630400,4.28163037109375,9.792057037353516,0.37941598892211914,-0.3768889904022217
1711523599176276200,4.291276123046875,9.792387962341309,0.3889800012111664,-0.35805800557136536
1711523599185922300,4.30092236328125,9.792793273925781,0.38067299127578735,-0.3558889925479889
1711523599195568000,4.310568115234375,9.792957305908203,0.395018994808197,-0.33516401052474976
1711523599205214000,4.3202138671875,9.793364524841309,0.38602301478385925,-0.3337000012397766
1711523599214859800,4.32985986328125,9.792905807495117,0.4074549973011017,-0.32148000597953796
1711523599224505300,4.33950537109375,9.793087005615234,0.40018099546432495,-0.32508400082588196
1711523599234151200,4.349151123046875,9.792076110839844,0.42655301094055176,-0.3220289945602417
1711523599243797000,4.358796875,9.792207717895508,0.42084801197052,-0.3254860043525696
1711523599253442800,4.36844287109375,9.79066276550293,0.45729100704193115,-0.3227980136871338
1711523599263088600,4.378088623046875,9.790931701660156,0.4524199962615967,-0.32150998711586
1711523599272734500,4.387734375,9.788771629333496,0.4972809851169586,-0.3210130035877228
1711523599282380300,4.39738037109375,9.788827896118164,0.4948599934577942,-0.3230319917201996
1711523599292026400,4.4070263671875,9.786057472229004,0.546638011932373,-0.3235050141811371
1711523599301672200,4.416672119140625,9.785910606384277,0.5471330285072327,-0.32707300782203674
1711523599311318000,4.426318115234375,9.78309154510498,0.5987150073051453,-0.3209959864616394
1711523599320963800,4.4359638671875,9.7830171585083,0.6003890037536621,-0.32016199827194214
1711523599330609700,4.445609619140625,9.781060218811035,0.6386550068855286,-0.30557799339294434
1711523599340255500,4.45525537109375,9.781230926513672,0.6390020251274109,-0.29930898547172546
1711523599349901300,4.4649013671875,9.77991771697998,0.6640530228614807,-0.28748899698257446
1711523599359547100,4.474547119140625,9.780172348022461,0.664339005947113,-0.27795499563217163
1711523599369193000,4.48419287109375,9.779507637023926,0.6793799996376038,-0.2647109925746918
1711523599378838500,4.493838623046875,9.779518127441406,0.6819720268249512,-0.2575100064277649
1711523599388484400,4.503484375,9.778504371643066,0.6968839764595032,-0.2561289966106415
1711523599398130200,4.513130126953125,9.77817153930664,0.7022659778594971,-0.25413399934768677
1711523599407776000,4.52277587890625,9.77656078338623,0.7233030200004578,-0.25709399580955505
1711523599417422000,4.532422119140625,9.776129722595215,0.7280430197715759,-0.26008298993110657
1711523599427068200,4.542068115234375,9.773534774780273,0.7575160264968872,-0.27306100726127625
1711523599436714000,4.5517138671875,9.773179054260254,0.7592599987983704,-0.280815988779068
1711523599446359600,4.561359619140625,9.770163536071777,0.7904279828071594,-0.2991830110549927
1711523599456005400,4.57100537109375,9.769658088684082,0.7934250235557556,-0.3076379895210266
1711523599465651200,4.580651123046875,9.768370628356934,0.8134080171585083,-0.29611000418663025
1711523599475297000,4.590297119140625,9.76834487915039,0.8160669803619385,-0.2895750105381012
1711523599484942800,4.59994287109375,9.767756462097168,0.834106981754303,-0.25612199306488037
1711523599494588700,4.609588623046875,9.767900466918945,0.8365650177001953,-0.2422019988298416
1711523599504234500,4.619234375,9.76723861694336,0.8529210090637207,-0.2096319943666458
1711523599513880300,4.62888037109375,9.766939163208008,0.8595259785652161,-0.19620299339294434
1711523599523526100,4.638526123046875,9.766739845275879,0.868897020816803,-0.16186000406742096
1711523599533172000,4.648171875,9.765954971313477,0.8796049952507019,-0.15095600485801697
1711523599542817800,4.65781787109375,9.766361236572266,0.8787639737129211,-0.12782399356365204
1711523599552464000,4.6674638671875,9.76537036895752,0.890034019947052,-0.12560300529003143
1711523599562109700,4.677109619140625,9.766357421875,0.8789510130882263,-0.12682899832725525
1711523599571755500,4.686755615234375,9.76557445526123,0.8877649903297424,-0.12577199935913086
1711523599581401300,4.6964013671875,9.766819953918457,0.8721290230751038,-0.13781699538230896
1711523599591047000,4.706046875,9.76644515991211,0.8772950172424316,-0.13143199682235718
1711523599600692700,4.715692626953125,9.768651962280273,0.8507000207901001,-0.14196600019931793
1711523599610338800,4.7253388671875,9.768677711486816,0.8512229919433594,-0.13690400123596191
1711523599619984600,4.734984619140625,9.770988464355469,0.8207399845123291,-0.15672600269317627
1711523599629630200,4.744630126953125,9.770519256591797,0.8245930075645447,-0.1654839962720871
1711523599639276000,4.754276123046875,9.771984100341797,0.7994710206985474,-0.19890999794006348
1711523599648921900,4.763921875,9.770526885986328,0.8135110139846802,-0.21307900547981262
1711523599658567700,4.773567626953125,9.770700454711914,0.8008750081062317,-0.2498050034046173
1711523599668213800,4.7832138671875,9.768486976623535,0.8249139785766602,-0.2579900026321411
1711523599677859600,4.792859619140625,9.7685546875,0.8160390257835388,-0.2824850082397461
1711523599687505400,4.80250537109375,9.766559600830078,0.8402280211448669,-0.28057000041007996
1711523599697151200,4.812151123046875,9.767685890197754,0.8180149793624878,-0.305851012468338
1711523599706797000,4.821797119140625,9.76623821258545,0.8356620073318481,-0.30436399579048157
1711523599716443000,4.83144287109375,9.768074989318848,0.7961440086364746,-0.34821799397468567
1711523599726088700,4.841088623046875,9.767312049865723,0.8043519854545593,-0.35075101256370544
1711523599735734500,4.850734619140625,9.770162582397461,0.7471269965171814,-0.3951070010662079
1711523599745380400,4.86038037109375,9.770358085632324,0.7443490028381348,-0.3955270051956177
1711523599755026200,4.870026123046875,9.7732572555542,0.683102011680603,-0.4326770007610321
1711523599764672000,4.879672119140625,9.773914337158203,0.6717399954795837,-0.43559199571609497
1711523599774317800,4.88931787109375,9.775418281555176,0.6234430074691772,-0.47213199734687805
1711523599783963600,4.898963623046875,9.77586841583252,0.6107659935951233,-0.479310005903244
1711523599793609200,4.908609130859375,9.77733325958252,0.5734140276908875,-0.49532899260520935
1711523599803255300,4.91825537109375,9.777482986450195,0.5637419819831848,-0.5033860206604004
1711523599812901000,4.927901123046875,9.778874397277832,0.5395489931106567,-0.5028859972953796
1711523599822547000,4.937546875,9.778852462768555,0.5332069993019104,-0.51003098487854
1711523599832193000,4.947193115234375,9.77988338470459,0.5153539776802063,-0.5085920095443726
1711523599841838600,4.956838623046875,9.779855728149414,0.5100160241127014,-0.5144680142402649
1711523599851484700,4.966484619140625,9.78073501586914,0.4865350127220154,-0.52047199010849
1711523599861130200,4.976130126953125,9.781089782714844,0.4785979986190796,-0.5211619734764099
1711523599870776000,4.985776123046875,9.781606674194336,0.45319101214408875,-0.5340189933776855
1711523599880422100,4.995422119140625,9.781936645507812,0.4442000091075897,-0.5355219841003418
1711523599890068000,5.00506787109375,9.781351089477539,0.42750200629234314,-0.5592790246009827
1711523599899713500,5.014713623046875,9.780706405639648,0.4215810000896454,-0.5748310089111328
1711523599909359400,5.024359375,9.779196739196777,0.420538991689682,-0.6007040143013
1711523599919005400,5.03400537109375,9.777766227722168,0.41638800501823425,-0.6263419985771179
1711523599928651000,5.043651123046875,9.777807235717773,0.41393500566482544,-0.6273220181465149
1711523599938297000,5.053297119140625,9.777000427246094,0.4032430052757263,-0.6465650200843811
1711523599947943000,5.06294287109375,9.777118682861328,0.40161898732185364,-0.6457870006561279
1711523599957588700,5.072588623046875,9.776707649230957,0.38794100284576416,-0.6602029800415039
1711523599967234600,5.082234619140625,9.775988578796387,0.38705000281333923,-0.671284019947052
1711523599976880400,5.09188037109375,9.775178909301758,0.37897300720214844,-0.6874920129776001
1711523599986526200,5.101526123046875,9.773506164550781,0.3876110017299652,-0.7061920166015625
1711523599996172000,5.111172119140625,9.772473335266113,0.38669800758361816,-0.7208510041236877
1711523600005817900,5.12081787109375,9.770317077636719,0.4093410074710846,-0.7373740077018738
1711523600015463700,5.130463623046875,9.769481658935547,0.4092540144920349,-0.7484179735183716
1711523600025109500,5.140109619140625,9.76785659790039,0.4316839873790741,-0.7569720149040222
1711523600034755300,5.14975537109375,9.767444610595703,0.4243110120296478,-0.7664030194282532
1711523600044401400,5.1594013671875,9.76651668548584,0.4391779899597168,-0.7698529958724976
1711523600054047000,5.169046875,9.766535758972168,0.4234369993209839,-0.7783759832382202
1711523600063692800,5.17869287109375,9.76555347442627,0.43257400393486023,-0.785643994808197
1711523600073339000,5.1883388671875,9.765524864196777,0.41510099172592163,-0.7953709959983826
1711523600082984700,5.197984619140625,9.764527320861816,0.4245859980583191,-0.8025550246238708
1711523600092630500,5.207630615234375,9.764278411865234,0.41119998693466187,-0.8125010132789612
1711523600102276400,5.2172763671875,9.762784957885742,0.4266290068626404,-0.8224260210990906
1711523600111922200,5.226922119140625,9.762503623962402,0.41923099756240845,-0.82955002784729
1711523600121568000,5.236568115234375,9.75971508026123,0.45403599739074707,-0.8439130187034607
1711523600131213800,5.2462138671875,9.759307861328125,0.45293301343917847,-0.8491989970207214
1711523600140859600,5.255859619140625,9.756101608276367,0.49838200211524963,-0.8605110049247742
1711523600150505700,5.265505615234375,9.755958557128906,0.4967150092124939,-0.8630959987640381
1711523600160151600,5.275151611328125,9.751884460449219,0.5469920039176941,-0.8786060214042664
1711523600169797400,5.28479736328125,9.752263069152832,0.5390639901161194,-0.879289984703064
1711523600179443000,5.29444287109375,9.748023986816406,0.576662003993988,-0.9021459817886353
1711523600189088800,5.3040888671875,9.7488431930542,0.5618209838867188,-0.9026550054550171
1711523600198734600,5.313734619140625,9.745067596435547,0.5893110036849976,-0.9256139993667603
1711523600208380400,5.32338037109375,9.746112823486328,0.5766180157661438,-0.9225980043411255
1711523600218026500,5.333026611328125,9.743640899658203,0.609233021736145,-0.9277349710464478
1711523600227672000,5.342672119140625,9.744706153869629,0.6054710149765015,-0.9189580082893372
1711523600237318100,5.352318115234375,9.743683815002441,0.6443420052528381,-0.9032400250434875
1711523600246963700,5.361963623046875,9.74445629119873,0.6477149724960327,-0.8924279808998108
1711523600256609500,5.371609619140625,9.743508338928223,0.686398983001709,-0.8736640214920044
1711523600266255600,5.381255615234375,9.744089126586914,0.6933969855308533,-0.8615750074386597
1711523600275901200,5.390901123046875,9.743403434753418,0.7277849912643433,-0.8407080173492432
1711523600285547000,5.400547119140625,9.744200706481934,0.735791027545929,-0.8243520259857178
1711523600295193000,5.410193115234375,9.743581771850586,0.7679409980773926,-0.8020430207252502
1711523600304839000,5.4198388671875,9.744712829589844,0.7745680212974548,-0.7816709876060486
1711523600314484700,5.429484619140625,9.741867065429688,0.8168650269508362,-0.7740470170974731
1711523600324130800,5.439130859375,9.742785453796387,0.8225370049476624,-0.7562829852104187
1711523600333776600,5.448776611328125,9.738716125488281,0.8654270172119141,-0.760807991027832
1711523600343422200,5.458422119140625,9.739160537719727,0.8710669875144958,-0.7485769987106323
1711523600353068000,5.468068115234375,9.736083984375,0.9047970175743103,-0.7485960125923157
1711523600362713900,5.4777138671875,9.736296653747559,0.9109870195388794,-0.7382439970970154
1711523600372359700,5.487359619140625,9.7349214553833,0.9324690103530884,-0.7295250296592712
1711523600382005800,5.497005859375,9.734848022460938,0.9414970278739929,-0.7188220024108887
1711523600391651600,5.506651611328125,9.737870216369629,0.9305369853973389,-0.6916419863700867
1711523600401297400,5.51629736328125,9.738112449645996,0.942330002784729,-0.6719859838485718
1711523600410943200,5.525943115234375,9.740514755249023,0.9260860085487366,-0.6596400141716003
1711523600420589000,5.535589111328125,9.740435600280762,0.9434710144996643,-0.6357359886169434
1711523600430235100,5.545235107421875,9.74212646484375,0.9256680011749268,-0.6360170245170593
1711523600439880700,5.554880615234375,9.7409029006958,0.9511299729347229,-0.6168879866600037
1711523600449526500,5.564526611328125,9.740482330322266,0.953607976436615,-0.6197090148925781
1711523600459172400,5.57417236328125,9.738548278808594,0.9814010262489319,-0.606564998626709
1711523600468818200,5.583818115234375,9.739927291870117,0.9794459939002991,-0.5872700214385986
1711523600478464000,5.593464111328125,9.739163398742676,0.9952309727668762,-0.5732259750366211
1711523600488109800,5.60310986328125,9.743183135986328,0.9728130102157593,-0.5425869822502136
1711523600497755600,5.612755615234375,9.74330997467041,0.9802799820899963,-0.5266460180282593
1711523600507401500,5.6224013671875,9.747062683105469,0.9549570083618164,-0.5031999945640564
1711523600517047600,5.632047607421875,9.746188163757324,0.9701269865036011,-0.4909699857234955
1711523600526693400,5.641693359375,9.747213363647461,0.962788999080658,-0.48502200841903687
1711523600536339200,5.651339111328125,9.744097709655762,0.9972149729728699,-0.4779990017414093
1711523600545985000,5.660985107421875,9.746358871459961,0.9861639738082886,-0.4542509913444519
1711523600555630800,5.670630859375,9.742897987365723,1.027480959892273,-0.43658000230789185
1711523600565276700,5.680276611328125,9.74679946899414,1.0061039924621582,-0.3975529968738556
1711523600574922500,5.689922607421875,9.74471664428711,1.036012053489685,-0.3708780109882355
1711523600584568300,5.699568359375,9.750036239624023,0.9974759817123413,-0.33500200510025024
1711523600594214100,5.709214111328125,9.750008583068848,1.0052759647369385,-0.3116700053215027
1711523600603860000,5.71885986328125,9.755736351013184,0.9492599964141846,-0.3080829977989197
1711523600613506000,5.728506103515625,9.75694465637207,0.9390770196914673,-0.30092498660087585
1711523600623151900,5.73815185546875,9.76219654083252,0.8769029974937439,-0.3177259862422943
1711523600632798000,5.7477978515625,9.763582229614258,0.8594539761543274,-0.3227579891681671
1711523600642443500,5.757443603515625,9.76887321472168,0.7932019829750061,-0.3321399986743927
1711523600652089600,5.767089599609375,9.770018577575684,0.7770500183105469,-0.3366110026836395
1711523600661735400,5.7767353515625,9.775291442871094,0.715179979801178,-0.3202509880065918
1711523600671381200,5.78638134765625,9.776156425476074,0.7065460085868835,-0.31294500827789307
1711523600681026800,5.79602685546875,9.780067443847656,0.6636009812355042,-0.28335800766944885
1711523600690672600,5.805672607421875,9.780192375183105,0.6687769889831543,-0.2663689851760864
1711523600700318700,5.815318603515625,9.782336235046387,0.6486089825630188,-0.2357970029115677
1711523600709964300,5.82496435546875,9.781818389892578,0.6621930003166199,-0.21888700127601624
1711523600719610400,5.8346103515625,9.782208442687988,0.6604120135307312,-0.20649400353431702
1711523600729256200,5.844256103515625,9.781661033630371,0.6706200242042542,-0.19934800267219543
1711523600738902000,5.853902099609375,9.780773162841797,0.6802819967269897,-0.20996099710464478
1711523600748547800,5.8635478515625,9.780506134033203,0.6831309795379639,-0.21313099563121796
1711523600758193700,5.873193603515625,9.78029727935791,0.6876140236854553,-0.20822599530220032
1711523600767839500,5.882839599609375,9.780495643615723,0.6831219792366028,-0.21358400583267212
1711523600777485300,5.8924853515625,9.78105640411377,0.6821659803390503,-0.18964099884033203
1711523600787131100,5.902131103515625,9.781624794006348,0.673770010471344,-0.19034099578857422
1711523600796777200,5.911777099609375,9.78223991394043,0.673183023929596,-0.15808899700641632
1711523600806422800,5.9214228515625,9.782941818237305,0.6639919877052307,-0.15347599983215332
1711523600816068600,5.931068603515625,9.783159255981445,0.6660439968109131,-0.12871000170707703
1711523600825714400,5.94071435546875,9.783760070800781,0.6576910018920898,-0.126010000705719
1711523600835360300,5.9503603515625,9.782885551452637,0.6697400212287903,-0.13028499484062195
1711523600845006300,5.96000634765625,9.783251762390137,0.6628080010414124,-0.13804200291633606
1711523600854652200,5.969652099609375,9.78154182434082,0.6830589771270752,-0.15891900658607483
1711523600864298200,5.97929833984375,9.781704902648926,0.6763269901275635,-0.17666800320148468
1711523600873943800,5.98894384765625,9.779236793518066,0.7069910168647766,-0.1925559937953949
1711523600883590000,5.99858984375,9.779362678527832,0.699521005153656,-0.21245700120925903
1711523600893235700,6.008235595703125,9.776914596557617,0.7326059937477112,-0.21358299255371094
1711523600902881500,6.017881591796875,9.777044296264648,0.7252900004386902,-0.23179300129413605
1711523600912527400,6.02752734375,9.774724960327148,0.7588850259780884,-0.2218959927558899
1711523600922173200,6.037173095703125,9.775019645690918,0.7506549954414368,-0.23643800616264343
1711523600931819000,6.046819091796875,9.773573875427246,0.7743009924888611,-0.21932899951934814
1711523600941464800,6.05646484375,9.774323463439941,0.7624549865722656,-0.2273149937391281
1711523600951110400,6.0661103515625,9.773704528808594,0.7752000093460083,-0.2100680023431778
1711523600960756500,6.075756591796875,9.774795532226562,0.7598109841346741,-0.21547000110149384
1711523600970402600,6.085402587890625,9.774724960327148,0.7626019716262817,-0.2087630033493042
1711523600980048400,6.09504833984375,9.775927543640137,0.7442870140075684,-0.21828599274158478
1711523600989694000,6.10469384765625,9.776067733764648,0.7411379814147949,-0.22269099950790405
1711523600999339800,6.11433984375,9.777349472045898,0.719914972782135,-0.23574399948120117
1711523601008985600,6.123985595703125,9.77763843536377,0.7140660285949707,-0.24144400656223297
1711523601018631400,6.13363134765625,9.779272079467773,0.6870459914207458,-0.253356009721756
1711523601028277500,6.143277587890625,9.779936790466309,0.6803479790687561,-0.24566400051116943
1711523601037923300,6.15292333984375,9.78207778930664,0.6467660069465637,-0.2510499954223633
1711523601047569200,6.162569091796875,9.78271484375,0.6433929800987244,-0.2343740016222
1711523601057215000,6.172215087890625,9.784836769104004,0.60971599817276,-0.23581600189208984
1711523601066860800,6.18186083984375,9.785174369812012,0.6110690236091614,-0.21757200360298157
1711523601076507000,6.1915068359375,9.786764144897461,0.5848469734191895,-0.2181600034236908
1711523601086152700,6.201152587890625,9.786474227905273,0.596422016620636,-0.19898399710655212
1711523601095798500,6.210798583984375,9.787514686584473,0.5792809724807739,-0.19842499494552612
1711523601105444400,6.2204443359375,9.787079811096191,0.5936560034751892,-0.1761229932308197
1711523601115090200,6.230090087890625,9.787755966186523,0.582207977771759,-0.17678099870681763
1711523601124736000,6.239736083984375,9.787036895751953,0.598235011100769,-0.16247700154781342
1711523601134381800,6.2493818359375,9.787254333496094,0.5927860140800476,-0.16925500333309174
1711523601144028000,6.25902783203125,9.786505699157715,0.6068239808082581,-0.16268399357795715
1711523601153673700,6.268673828125,9.786405563354492,0.606069028377533,-0.17129400372505188
1711523601163319300,6.2783193359375,9.785654067993164,0.6193429827690125,-0.16663600504398346
1711523601172965000,6.287965087890625,9.78514289855957,0.6246340274810791,-0.17662100493907928
1711523601182611200,6.297611083984375,9.78425407409668,0.6405150294303894,-0.16878099739551544
1711523601192257000,6.307257080078125,9.783074378967285,0.655430018901825,-0.17961600422859192
1711523601201902800,6.31690283203125,9.781094551086426,0.685018002986908,-0.17696799337863922
1711523601211548700,6.326548583984375,9.779048919677734,0.711230993270874,-0.1863889992237091
1711523601221194500,6.336194580078125,9.776394844055176,0.7484909892082214,-0.17956499755382538
1711523601230840300,6.34584033203125,9.774276733398438,0.7747979760169983,-0.18328000605106354
1711523601240486100,6.355486083984375,9.772032737731934,0.8051159977912903,-0.17188799381256104
1711523601250132000,6.365132080078125,9.77083683013916,0.8194460272789001,-0.1721770018339157
1711523601259777800,6.37477783203125,9.770127296447754,0.8304589986801147,-0.15919700264930725
1711523601269423600,6.384423583984375,9.769583702087402,0.8353970050811768,-0.16651199758052826
1711523601279069400,6.3940693359375,9.770155906677246,0.8290690183639526,-0.164560005068779
1711523601288715500,6.403715576171875,9.769427299499512,0.8350210189819336,-0.17726300656795502
1711523601298361300,6.413361328125,9.770301818847656,0.8237940073013306,-0.18150000274181366
1711523601308007200,6.423007080078125,9.768874168395996,0.8386769890785217,-0.19001999497413635
1711523601317653000,6.432653076171875,9.769142150878906,0.8324090242385864,-0.20335699617862701
1711523601327298800,6.442298828125,9.767207145690918,0.8551750183105469,-0.2017900049686432
1711523601336944600,6.451944580078125,9.767395973205566,0.8477510213851929,-0.2228900045156479
1711523601346590500,6.461590576171875,9.76561164855957,0.8700879812240601,-0.21482500433921814
1711523601356236300,6.471236328125,9.7667875289917,0.8490710258483887,-0.2435390055179596
1711523601365882000,6.480882080078125,9.765727996826172,0.8642129898071289,-0.2325509935617447
1711523601375528000,6.49052783203125,9.768189430236816,0.8277950286865234,-0.26004400849342346
1711523601385174000,6.500174072265625,9.767948150634766,0.8335509896278381,-0.25056299567222595
1711523601394820000,6.509820068359375,9.77084732055664,0.7880979776382446,-0.2825529873371124
1711523601404465700,6.519465576171875,9.771005630493164,0.7870410084724426,-0.2799980044364929
1711523601414111500,6.529111572265625,9.773589134216309,0.7368109822273254,-0.323170006275177
1711523601423757300,6.53875732421875,9.7733793258667,0.7369710206985474,-0.3290950059890747
1711523601433403100,6.548403076171875,9.775736808776855,0.6854850053787231,-0.3680669963359833
1711523601443049200,6.55804931640625,9.774781227111816,0.6944350004196167,-0.3765769898891449
1711523601452694800,6.56769482421875,9.775626182556152,0.6623010039329529,-0.4109480082988739
1711523601462340900,6.5773408203125,9.774018287658691,0.68196702003479,-0.41697800159454346
1711523601471986700,6.586986572265625,9.773988723754883,0.667855978012085,-0.43988800048828125
1711523601481632500,6.596632568359375,9.771758079528809,0.6969079971313477,-0.44435399770736694
1711523601491278300,6.6062783203125,9.770644187927246,0.7021870017051697,-0.46024399995803833
1711523601500924200,6.615924072265625,9.768230438232422,0.7347580194473267,-0.4606429934501648
1711523601510570200,6.6255703125,9.765745162963867,0.7544280290603638,-0.48109498620033264
1711523601520216000,6.635216064453125,9.763204574584961,0.7869129776954651,-0.48061099648475647
1711523601529862000,6.64486181640625,9.759960174560547,0.8183910250663757,-0.49375298619270325
1711523601539507700,6.6545078125,9.757564544677734,0.8470029830932617,-0.4928250014781952
1711523601549153500,6.664153564453125,9.754837989807129,0.8755319714546204,-0.49696600437164307
1711523601558799400,6.67379931640625,9.75292682647705,0.8946449756622314,-0.5004040002822876
1711523601568445200,6.683445068359375,9.750863075256348,0.9098280072212219,-0.5131000280380249
1711523601578091300,6.69309130859375,9.749833106994629,0.9176200032234192,-0.5187450051307678
1711523601587737000,6.702737060546875,9.75133228302002,0.8994960188865662,-0.5223060250282288
1711523601597383000,6.7123828125,9.75173282623291,0.8957340121269226,-0.5212960243225098
1711523601607028700,6.72202880859375,9.75546646118164,0.8586559891700745,-0.5137889981269836
1711523601616674600,6.731674560546875,9.757280349731445,0.8444229960441589,-0.5027989745140076
1711523601626320400,6.7413203125,9.760732650756836,0.8078510165214539,-0.49583500623703003
1711523601635966200,6.75096630859375,9.763239860534668,0.7835170030593872,-0.4854309856891632
1711523601645612000,6.760612060546875,9.765463829040527,0.7447580099105835,-0.5014269948005676
1711523601655257900,6.7702578125,9.76806354522705,0.709792971611023,-0.5015149712562561
1711523601664903700,6.779903564453125,9.768101692199707,0.6760870218276978,-0.5454199910163879
1711523601674549800,6.7895498046875,9.769905090332031,0.6403740048408508,-0.5561220049858093
1711523601684195600,6.799195556640625,9.767705917358398,0.628371000289917,-0.6061859726905823
1711523601693841400,6.80884130859375,9.768685340881348,0.603272020816803,-0.6158409714698792
1711523601703487200,6.8184873046875,9.767097473144531,0.6091399788856506,-0.634926974773407
1711523601713133000,6.828133056640625,9.768243789672852,0.5939620137214661,-0.6316670179367065
1711523601722779100,6.837779052734375,9.767046928405762,0.6198610067367554,-0.6252549886703491
1711523601732425000,6.847425048828125,9.768281936645508,0.6115760207176208,-0.6140270233154297
1711523601742070800,6.85707080078125,9.767468452453613,0.6408810019493103,-0.5968400239944458
1711523601751716600,6.866716552734375,9.768475532531738,0.6348659992218018,-0.5867050290107727
1711523601761362400,6.876362548828125,9.767630577087402,0.6627370119094849,-0.5697069764137268
1711523601771008300,6.88600830078125,9.768695831298828,0.6534940004348755,-0.5620740056037903
1711523601780653800,6.89565380859375,9.76770305633545,0.6717159748077393,-0.5578010082244873
1711523601790300000,6.9052998046875,9.769030570983887,0.6561130285263062,-0.5531259775161743
1711523601799945700,6.91494580078125,9.767327308654785,0.6707969903945923,-0.565451979637146
1711523601809591800,6.924591796875,9.768683433532715,0.6501690149307251,-0.5661100149154663
1711523601819237600,6.934237548828125,9.766770362854004,0.6586940288543701,-0.5888199806213379
1711523601828883500,6.943883544921875,9.767762184143066,0.6372889876365662,-0.5958790183067322
1711523601838529300,6.953529296875,9.76542854309082,0.6516420245170593,-0.6182029843330383
1711523601848175000,6.963175048828125,9.765901565551758,0.6351510286331177,-0.6277980208396912
1711523601857821000,6.972821044921875,9.763312339782715,0.6605250239372253,-0.6417530179023743
1711523601867466800,6.982466796875,9.763677597045898,0.6514769792556763,-0.6454179883003235
1711523601877112600,6.992112548828125,9.761432647705078,0.6871439814567566,-0.6423770189285278
1711523601886758400,7.00175830078125,9.76194953918457,0.684112012386322,-0.6377379894256592
1711523601896404500,7.011404541015625,9.760388374328613,0.7221879959106445,-0.6193950176239014
1711523601906050300,7.02105029296875,9.761067390441895,0.7224839925765991,-0.6082500219345093
1711523601915695900,7.03069580078125,9.759846687316895,0.7563959956169128,-0.5862060189247131
1711523601925341700,7.040341796875,9.760235786437988,0.7609900236129761,-0.5736500024795532
1711523601934987800,7.04998779296875,9.757916450500488,0.800262987613678,-0.5594840049743652
1711523601944633600,7.059633544921875,9.75757884979248,0.8117769956588745,-0.5486940145492554
1711523601954279400,7.069279541015625,9.754377365112305,0.8537939786911011,-0.5417839884757996
1711523601963925200,7.07892529296875,9.753362655639648,0.8695870041847229,-0.5349130034446716
1711523601973571000,7.088571044921875,9.749702453613281,0.9104959964752197,-0.5335559844970703
1711523601983217000,7.098216796875,9.748625755310059,0.9249770045280457,-0.5282959938049316
1711523601992862700,7.10786279296875,9.74598217010498,0.9564380049705505,-0.5209800004959106
1711523602002508800,7.1175087890625,9.74543285369873,0.964372992515564,-0.5166260004043579
1711523602012154600,7.127154541015625,9.74477481842041,0.9775699973106384,-0.5040950179100037
1711523602021800700,7.13680078125,9.745243072509766,0.977666974067688,-0.49476000666618347
1711523602031446500,7.146446533203125,9.745519638061523,0.977994978427887,-0.4886299967765808
1711523602041092400,7.15609228515625,9.74542236328125,0.9859089851379395,-0.47445300221443176
1711523602050738200,7.16573828125,9.742609024047852,1.010382056236267,-0.48072299361228943
1711523602060384000,7.175384033203125,9.740948677062988,1.0348149538040161,-0.4620319902896881
1711523602070029800,7.18502978515625,9.737605094909668,1.0678770542144775,-0.45723599195480347
1711523602079675600,7.194675537109375,9.735353469848633,1.0970189571380615,-0.4356899857521057
1711523602089321500,7.204321533203125,9.731456756591797,1.1324000358581543,-0.4322260022163391
1711523602098967300,7.21396728515625,9.72938346862793,1.1554960012435913,-0.4175170063972473
1711523602108613400,7.22361328125,9.725860595703125,1.18196702003479,-0.42541399598121643
1711523602118259200,7.23325927734375,9.724472999572754,1.1953229904174805,-0.41976800560951233
1711523602127905000,7.242905029296875,9.720791816711426,1.2175719738006592,-0.44057801365852356
1711523602137550800,7.25255078125,9.719517707824707,1.2264180183410645,-0.44416001439094543
1711523602147196700,7.26219677734375,9.717531204223633,1.2385430335998535,-0.45383700728416443
1711523602156842500,7.271842529296875,9.716646194458008,1.2444720268249512,-0.45657598972320557
1711523602166488300,7.28148828125,9.716142654418945,1.2464540004730225,-0.4618529975414276
1711523602176134100,7.291134033203125,9.715493202209473,1.2534879446029663,-0.4564509987831116
1711523602185780200,7.3007802734375,9.716386795043945,1.2516249418258667,-0.44234699010849
1711523602195426000,7.310426025390625,9.715936660766602,1.262246012687683,-0.421550989151001
1711523602205072000,7.32007177734375,9.718781471252441,1.2512660026550293,-0.38732999563217163
1711523602214718000,7.329718017578125,9.718423843383789,1.261396050453186,-0.3626289963722229
1711523602224363500,7.339363525390625,9.722800254821777,1.2380579710006714,-0.32364898920059204
1711523602234009300,7.34900927734375,9.72244644165039,1.2448389530181885,-0.3078869879245758
1711523602243655200,7.3586552734375,9.727519989013672,1.2111519575119019,-0.2808069884777069
1711523602253301000,7.368301025390625,9.726646423339844,1.2180320024490356,-0.2813189923763275
1711523602262947000,7.377947021484375,9.729846000671387,1.1938400268554688,-0.27426499128341675
1711523602272593000,7.387593017578125,9.727381706237793,1.2095659971237183,-0.2921989858150482
1711523602282239000,7.397239013671875,9.729891777038574,1.1924389600753784,-0.2787329852581024
1711523602291884800,7.406884765625,9.726537704467773,1.2146990299224854,-0.29890599846839905
1711523602301530600,7.416530517578125,9.729656219482422,1.1963720321655273,-0.2699750065803528
1711523602311176200,7.42617626953125,9.726353645324707,1.220005989074707,-0.2828809916973114
1711523602320822000,7.435822021484375,9.730814933776855,1.1924530267715454,-0.24428899586200714
1711523602330468000,7.445468017578125,9.728035926818848,1.2137969732284546,-0.2498050034046173
1711523602340114000,7.455114013671875,9.731907844543457,1.1872650384902954,-0.22530800104141235
1711523602349759700,7.464759765625,9.729616165161133,1.2044390439987183,-0.23296800255775452
1711523602359405600,7.474405517578125,9.731719017028809,1.1878119707107544,-0.2305459976196289
1711523602369051400,7.484051513671875,9.729971885681152,1.1987659931182861,-0.24697700142860413
1711523602378697200,7.493697265625,9.73340892791748,1.1725150346755981,-0.23737099766731262
1711523602388343000,7.503343017578125,9.733451843261719,1.168416976928711,-0.25513699650764465
1711523602397988900,7.51298876953125,9.740528106689453,1.114738941192627,-0.22329500317573547
1711523602407634700,7.522634765625,9.742658615112305,1.0931270122528076,-0.23676200211048126
1711523602417280800,7.53228076171875,9.75039291381836,1.0266510248184204,-0.21493400633335114
1711523602426926600,7.541926513671875,9.753371238708496,0.9957759976387024,-0.22485800087451935
1711523602436572700,7.55157275390625,9.760514259338379,0.9265120029449463,-0.21057499945163727
1711523602446218500,7.561218505859375,9.763490676879883,0.8934839963912964,-0.21523499488830566
1711523602455864300,7.5708642578125,9.767690658569336,0.8450980186462402,-0.22006699442863464
1711523602465510100,7.58051025390625,9.77001667022705,0.8160600066184998,-0.2263060063123703
1711523602475156000,7.590156005859375,9.77180290222168,0.7872290015220642,-0.25004100799560547
1711523602484801800,7.5998017578125,9.77341079711914,0.7637410163879395,-0.2598609924316406
1711523602494447600,7.609447509765625,9.773280143737793,0.752373993396759,-0.29548799991607666
1711523602504093400,7.619093505859375,9.774009704589844,0.7363070249557495,-0.3114069998264313
1711523602513739300,7.6287392578125,9.773107528686523,0.7363250255584717,-0.3385080099105835
1711523602523385000,7.638385009765625,9.773595809936523,0.7239660024642944,-0.3508239984512329
1711523602533031000,7.648031005859375,9.772457122802734,0.7349759936332703,-0.3595559895038605
1711523602542677000,7.657677001953125,9.773056030273438,0.7242720127105713,-0.3649649918079376
1711523602552323000,7.667322998046875,9.77253246307373,0.7371559739112854,-0.35301899909973145
1711523602561969000,7.676968994140625,9.773605346679688,0.7236660122871399,-0.3511810004711151
1711523602571614700,7.68661474609375,9.773863792419434,0.7262589931488037,-0.3384220004081726
1711523602581260300,7.69626025390625,9.774945259094238,0.7119849920272827,-0.33751198649406433
1711523602590906400,7.70590625,9.775094032287598,0.7111549973487854,-0.33493098616600037
1711523602600552000,7.715552001953125,9.776062965393066,0.6983500123023987,-0.33358100056648254
1711523602610198000,7.725197998046875,9.776385307312012,0.6977999806404114,-0.3251810073852539
1711523602619843800,7.73484375,9.777324676513672,0.6865739822387695,-0.32083600759506226
1711523602629490000,7.744489990234375,9.777403831481934,0.6915590167045593,-0.3074139952659607
1711523602639135700,7.7541357421875,9.778135299682617,0.6835579872131348,-0.3019930124282837
1711523602648781600,7.763781494140625,9.77738094329834,0.7005100250244141,-0.28720399737358093
1711523602658427400,7.773427490234375,9.777878761291504,0.6953439712524414,-0.28277701139450073
1711523602668073200,7.7830732421875,9.776294708251953,0.7222700119018555,-0.2697480022907257
1711523602677719000,7.792718994140625,9.776726722717285,0.7178919911384583,-0.2657549977302551
1711523602687364900,7.80236474609375,9.774861335754395,0.7486460208892822,-0.24903100728988647
1711523602697010700,7.8120107421875,9.775283813476562,0.7441859841346741,-0.24577300250530243
1711523602706656800,7.82165673828125,9.773604393005371,0.7722619771957397,-0.2250950038433075
1711523602716302800,7.831302734375,9.773789405822754,0.7700710296630859,-0.22451600432395935
1711523602725948400,7.840948486328125,9.771138191223145,0.8065590262413025,-0.21147899329662323
1711523602735594200,7.85059423828125,9.77073860168457,0.8115310072898865,-0.210889995098114
1711523602745240000,7.860239990234375,9.767210960388184,0.8549360036849976,-0.20260800421237946
1711523602754886000,7.869885986328125,9.766140937805176,0.8679029941558838,-0.19905200600624084
1711523602764532000,7.879531982421875,9.761938095092773,0.9170089960098267,-0.18456099927425385
1711523602774177800,7.889177734375,9.760750770568848,0.9318569898605347,-0.17258299887180328
1711523602783823600,7.89882373046875,9.75695514678955,0.9746879935264587,-0.14898699522018433
1711523602793469400,7.908469482421875,9.7560453414917,0.9858649969100952,-0.13424700498580933
1711523602803115300,7.918115234375,9.75369930267334,1.0117690563201904,-0.10983400046825409
1711523602812761000,7.927760986328125,9.753158569335938,1.0179860591888428,-0.10000299662351608
1711523602822407200,7.9374072265625,9.752991676330566,1.022068977355957,-0.07010699808597565
1711523602832053200,7.94705322265625,9.752785682678223,1.0244770050048828,-0.06331899762153625
1711523602841699000,7.956698974609375,9.752920150756836,1.0238640308380127,-0.051405999809503555
1711523602851345000,7.966344970703125,9.752297401428223,1.0298579931259155,-0.04978499934077263
1711523602860990500,7.975990478515625,9.751151084899902,1.0404130220413208,-0.05447100102901459
1711523602870636300,7.98563623046875,9.749491691589355,1.0557069778442383,-0.05715399980545044
1711523602880282400,7.995282470703125,9.747702598571777,1.072532057762146,-0.048636000603437424
1711523602889928000,8.004927978515624,9.745991706848145,1.0881669521331787,-0.043852001428604126
1711523602899574000,8.014573974609375,9.744909286499023,1.098479986190796,-0.022072000429034233
1711523602909220000,8.02422021484375,9.744039535522461,1.106276035308838,-0.015544000081717968
1711523602918866000,8.033865966796874,9.745367050170898,1.0945249795913696,-0.014955000020563602
1711523602928511700,8.04351171875,9.744972229003906,1.098044991493225,-0.014267999678850174
1711523602938157600,8.053157470703125,9.747430801391602,1.0755139589309692,-0.035353999584913254
1711523602947803400,8.062803466796876,9.747077941894531,1.0787910223007202,-0.032944001257419586
1711523602957449200,8.07244921875,9.750185012817383,1.04920494556427,-0.05864499881863594
1711523602967095000,8.082094970703125,9.750186920166016,1.049489974975586,-0.05305299907922745
1711523602976740900,8.091740966796875,9.75413703918457,1.0104680061340332,-0.07836899906396866
1711523602986387000,8.101386962890626,9.754751205444336,1.0047229528427124,-0.07574400305747986
1711523602996032800,8.11103271484375,9.75986099243164,0.9509389996528625,-0.10590100288391113
1711523603005678800,8.120678955078125,9.76098346710205,0.9391270279884338,-0.10790999978780746
1711523603015324700,8.13032470703125,9.765543937683105,0.8844720125198364,-0.1491589993238449
1711523603024970500,8.139970458984376,9.766253471374512,0.8753119707107544,-0.15655699372291565
1711523603034616300,8.1496162109375,9.768853187561035,0.8342700004577637,-0.20949499309062958
1711523603044262000,8.159261962890625,9.768556594848633,0.8341599702835083,-0.22331500053405762
1711523603053908000,8.168907958984375,9.769820213317871,0.8028870224952698,-0.2763510048389435
1711523603063553800,8.1785537109375,9.768654823303223,0.811447024345398,-0.2921209931373596
1711523603073199600,8.18819970703125,9.769105911254883,0.7909960150718689,-0.3305709958076477
1711523603082845400,8.197845458984375,9.767659187316895,0.8045060038566589,-0.34058699011802673
1711523603092491300,8.2074912109375,9.767258644104004,0.7967360019683838,-0.36912599205970764
1711523603102137600,8.2171376953125,9.765649795532227,0.8135089874267578,-0.37507501244544983
1711523603111783400,8.226783447265625,9.76488971710205,0.8136529922485352,-0.3940660059452057
1711523603121429200,8.23642919921875,9.763487815856934,0.8307030200958252,-0.39321500062942505
1711523603131074800,8.24607470703125,9.763143539428711,0.834801971912384,-0.39305898547172546
1711523603140720600,8.255720703125,9.762116432189941,0.8505669832229614,-0.38470301032066345
1711523603150366700,8.26536669921875,9.763684272766113,0.8442710041999817,-0.35786500573158264
1711523603160012500,8.275012451171875,9.76274299621582,0.8579239845275879,-0.3510020077228546
1711523603169658400,8.284658447265626,9.764812469482422,0.8434550166130066,-0.32773301005363464
1711523603179304200,8.29430419921875,9.76375675201416,0.8553439974784851,-0.3283750116825104
1711523603188950000,8.303949951171875,9.764883041381836,0.84232497215271,-0.3285360038280487
1711523603198596000,8.31359619140625,9.764122009277344,0.8493430018424988,-0.33304500579833984
1711523603208242000,8.323241943359376,9.764981269836426,0.8355000019073486,-0.3427470028400421
1711523603217887700,8.3328876953125,9.765283584594727,0.8329349756240845,-0.3403509855270386
1711523603227533600,8.342533447265625,9.76791000366211,0.8057379722595215,-0.33027300238609314
1711523603237179400,8.352179443359375,9.769598960876465,0.7903929948806763,-0.3171960115432739
1711523603246825200,8.3618251953125,9.773002624511719,0.7535730004310608,-0.3015719950199127
1711523603256471300,8.37147119140625,9.774884223937988,0.7316589951515198,-0.2944509983062744
1711523603266117400,8.381117431640625,9.776914596557617,0.7012400031089783,-0.3009679913520813
1711523603275763200,8.39076318359375,9.778244018554688,0.6800270080566406,-0.3064259886741638
1711523603285408800,8.40040869140625,9.778817176818848,0.6617980003356934,-0.32731199264526367
1711523603295054800,8.410054931640625,9.779609680175781,0.6457539796829224,-0.3355790078639984
1711523603304700700,8.41970068359375,9.779337882995605,0.6410940289497375,-0.35204699635505676
1711523603314346500,8.429346435546876,9.78020191192627,0.629056990146637,-0.34976598620414734
1711523603323992300,8.438992431640624,9.779409408569336,0.637499988079071,-0.35654300451278687
1711523603333638100,8.44863818359375,9.780123710632324,0.6308680176734924,-0.3486649990081787
1711523603343284000,8.458283935546875,9.778733253479004,0.6484209895133972,-0.3554080128669739
1711523603352930000,8.467929931640626,9.779427528381348,0.644586980342865,-0.34301599860191345
1711523603362576000,8.477575927734375,9.778651237487793,0.659430980682373,-0.33692899346351624
1711523603372222000,8.487221923828125,9.779544830322266,0.6534429788589478,-0.3223389983177185
1711523603381867800,8.49686767578125,9.77939224243164,0.6625229716300964,-0.3081069886684418
1711523603391513600,8.506513671875,9.780659675598145,0.6494579911231995,-0.29542800784111023
1711523603401159200,8.5161591796875,9.78101921081543,0.6485490202903748,-0.2853339910507202
1711523603410805200,8.52580517578125,9.782583236694336,0.6275550127029419,-0.2786119878292084
1711523603420451000,8.535451171875,9.782864570617676,0.6226789951324463,-0.27967000007629395
1711523603430097200,8.54509716796875,9.784427642822266,0.5984209775924683,-0.2779630124568939
1711523603439742700,8.55474267578125,9.78493595123291,0.5913190245628357,-0.27525201439857483
1711523603449388500,8.564388427734375,9.786384582519531,0.567317008972168,-0.2742680013179779
1711523603459034600,8.57403466796875,9.786757469177246,0.5634880065917969,-0.2688030004501343
1711523603468680400,8.583680419921874,9.7879056930542,0.5434399843215942,-0.2682479918003082
1711523603478326300,8.593326171875,9.78784465789795,0.5471180081367493,-0.2629440128803253
1711523603487972000,8.60297216796875,9.788796424865723,0.5320159792900085,-0.25845101475715637
1711523603497618200,8.6126181640625,9.787596702575684,0.5519689917564392,-0.26208698749542236
1711523603507264000,8.622263916015624,9.788134574890137,0.5437729954719543,-0.2590920031070709
1711523603516909800,8.631909912109375,9.78585433959961,0.5800729990005493,-0.2663620114326477
1711523603526555600,8.6415556640625,9.78609561920166,0.5773659944534302,-0.26336199045181274
1711523603536201500,8.651201416015626,9.78320026397705,0.6231170296669006,-0.26665499806404114
1711523603545847600,8.66084765625,9.783007621765137,0.6264209747314453,-0.26600098609924316
1711523603555493400,8.670493408203125,9.779269218444824,0.6838369965553284,-0.2620350122451782
1711523603565139200,8.68013916015625,9.778708457946777,0.6927989721298218,-0.25938698649406433
1711523603574785000,8.689784912109374,9.77408504486084,0.7593380212783813,-0.2471030056476593
1711523603584430800,8.699430908203125,9.773357391357422,0.7707419991493225,-0.24048000574111938
1711523603594076700,8.70907666015625,9.768109321594238,0.8376740217208862,-0.22959700226783752
1711523603603722500,8.718722412109376,9.767399787902832,0.8485350012779236,-0.21972200274467468
1711523603613368300,8.728368408203124,9.762173652648926,0.9089660048484802,-0.21006600558757782
1711523603623014400,8.738014404296875,9.761609077453613,0.9177929759025574,-0.1975570023059845
1711523603632660200,8.74766015625,9.756264686584473,0.9746519923210144,-0.18904800713062286
1711523603642306300,8.757306396484376,9.756144523620605,0.9780719876289368,-0.177156001329422
1711523603651952000,8.7669521484375,9.752333641052246,1.016545057296753,-0.17035500705242157
1711523603661598000,8.776597900390625,9.75307846069336,1.0108669996261597,-0.1612360030412674
1711523603671243800,8.786243896484375,9.751294136047363,1.0284249782562256,-0.1580819934606552
1711523603680889600,8.7958896484375,9.752524375915527,1.017807960510254,-0.1508059948682785
1711523603690535700,8.80553564453125,9.75177001953125,1.0239399671554565,-0.1578740030527115
1711523603700181500,8.815181396484375,9.752695083618164,1.0160499811172485,-0.1515520066022873
1711523603709827000,8.8248271484375,9.752039909362793,1.0201900005340576,-0.165242999792099
1711523603719473000,8.834472900390624,9.75240707397461,1.0181939601898193,-0.15563300251960754
1711523603729118700,8.84411865234375,9.751031875610352,1.0283969640731812,-0.17364199459552765
1711523603738764800,8.853764892578125,9.750824928283691,1.0318859815597534,-0.1644030064344406
1711523603748411000,8.863410888671876,9.747541427612305,1.0573780536651611,-0.1943739950656891
1711523603758056700,8.873056640625,9.746933937072754,1.064005970954895,-0.18858499825000763
1711523603767702500,8.88270263671875,9.74427318572998,1.0850249528884888,-0.20553399622440338
1711523603777348400,8.892348388671875,9.74374771118164,1.0910149812698364,-0.19864200055599213
1711523603786994200,8.901994140625,9.742242813110352,1.104773998260498,-0.1963679939508438
1711523603796640000,8.911639892578124,9.7420654296875,1.1082719564437866,-0.1851309984922409
1711523603806285800,8.921285888671875,9.74229621887207,1.1076040267944336,-0.17678800225257874
1711523603815931600,8.930931640625,9.741926193237305,1.1120799779891968,-0.1688860058784485
1711523603825577500,8.940577392578126,9.743032455444336,1.1016839742660522,-0.1732500046491623
1711523603835223600,8.9502236328125,9.74154281616211,1.1148380041122437,-0.17281700670719147
1711523603844869400,8.959869384765625,9.740996360778809,1.114851951599121,-0.20120500028133392
1711523603854515200,8.96951513671875,9.73830509185791,1.1375969648361206,-0.20413599908351898
1711523603864161300,8.979161376953124,9.73814868927002,1.1359059810638428,-0.22036400437355042
1711523603873807000,8.98880712890625,9.735363960266113,1.1595180034637451,-0.220427006483078
1711523603883453000,8.998452880859375,9.736851692199707,1.1458699703216553,-0.2260179966688156
1711523603893098800,9.0080986328125,9.734321594238281,1.1674729585647583,-0.2244279980659485
1711523603902744600,9.01774462890625,9.737122535705566,1.1418629884719849,-0.23446699976921082
1711523603912390700,9.027390625,9.734343528747559,1.1659300327301025,-0.23138299584388733
1711523603922036700,9.03703662109375,9.736913681030273,1.1390960216522217,-0.2556299865245819
1711523603931682600,9.0466826171875,9.733753204345703,1.166200041770935,-0.253807008266449
1711523603941328400,9.056328369140624,9.735722541809082,1.142372965812683,-0.284714013338089
1711523603950974200,9.06597412109375,9.73219108581543,1.1711430549621582,-0.28852900862693787
1711523603960620000,9.0756201171875,9.734743118286133,1.1466419696807861,-0.3006030023097992
1711523603970265900,9.085265869140626,9.731342315673828,1.1722149848937988,-0.31186801195144653
1711523603979911700,9.09491162109375,9.735774993896484,1.1404969692230225,-0.29045501351356506
1711523603989557800,9.104557861328125,9.733255386352539,1.1575590372085571,-0.3069019913673401
1711523603999203600,9.11420361328125,9.738993644714355,1.1171430349349976,-0.27271100878715515
1711523604008849700,9.123849609375,9.737122535705566,1.1287720203399658,-0.29101699590682983
1711523604018495500,9.13349560546875,9.743305206298828,1.0827820301055908,-0.2568570077419281
1711523604028141300,9.143141357421875,9.741676330566406,1.0943100452423096,-0.26945599913597107
1711523604037787000,9.152786865234376,9.746397972106934,1.0575720071792603,-0.24423600733280182
1711523604047433000,9.162432861328124,9.745147705078125,1.0683850049972534,-0.24705100059509277
1711523604057078800,9.172078857421875,9.749767303466797,1.0315810441970825,-0.2197210043668747
1711523604066724600,9.181724609375,9.749049186706543,1.038032054901123,-0.22116799652576447
1711523604076370400,9.191370361328126,9.754022598266602,0.9963030219078064,-0.19185200333595276
1711523604086016300,9.201016357421874,9.753976821899414,0.9950839877128601,-0.20034199953079224
1711523604095662300,9.210662353515625,9.759081840515137,0.9463499784469604,-0.18740299344062805
1711523604105308200,9.22030810546875,9.759376525878906,0.9400020241737366,-0.20330899953842163
1711523604114954200,9.229954345703124,9.763729095458984,0.8944420218467712,-0.19985300302505493
1711523604124599800,9.239599853515625,9.763785362243652,0.8888779878616333,-0.22082699835300446
1711523604134246000,9.249245849609375,9.766669273376465,0.8577640056610107,-0.21632499992847443
1711523604143891700,9.2588916015625,9.766711235046387,0.8536249995231628,-0.2303829938173294
1711523604153537500,9.26853759765625,9.769445419311523,0.8302680253982544,-0.19742700457572937
1711523604163183400,9.278183349609375,9.770185470581055,0.8223659992218018,-0.1938299983739853
1711523604172829200,9.2878291015625,9.773092269897461,0.7982059717178345,-0.14114800095558167
1711523604182475000,9.29747509765625,9.774397850036621,0.7840920090675354,-0.12935499846935272
1711523604192121000,9.30712109375,9.776824951171875,0.7590100169181824,-0.08937499672174454
1711523604201767000,9.316766845703125,9.778458595275879,0.7389140129089355,-0.07841300219297409
1711523604211412700,9.326412841796875,9.780350685119629,0.71567702293396,-0.05406700074672699
1711523604221058800,9.336058837890626,9.782011032104492,0.692870020866394,-0.050680000334978104
1711523604230704600,9.34570458984375,9.783674240112305,0.6695299744606018,-0.04294700175523758
1711523604240350500,9.3553505859375,9.784882545471191,0.6512370109558105,-0.0483039990067482
1711523604249996300,9.364996337890625,9.785605430603027,0.6398590207099915,-0.05383700132369995
1711523604259642000,9.37464208984375,9.786059379577637,0.6320359706878662,-0.06292799860239029
1711523604269288000,9.384287841796874,9.785704612731934,0.6360340118408203,-0.07648400217294693
1711523604278934000,9.39393408203125,9.785682678222656,0.6358259916305542,-0.08074899762868881
1711523604288580000,9.403580078125,9.783949851989746,0.6582880020141602,-0.1066029965877533
1711523604298226000,9.413225830078124,9.783756256103516,0.6606190204620361,-0.10988400131464005
1711523604307871500,9.42287158203125,9.781307220458984,0.6897109746932983,-0.14392699301242828
1711523604317517600,9.432517578125,9.781316757202148,0.6880019903182983,-0.15130600333213806
1711523604327163400,9.442163330078126,9.779487609863281,0.7091590166091919,-0.17057299613952637
1711523604336809200,9.451809326171874,9.779984474182129,0.7002130150794983,-0.17888599634170532
1711523604346455000,9.461455078125,9.779741287231445,0.703540027141571,-0.17911499738693237
1711523604356101000,9.47110107421875,9.780442237854004,0.6917340159416199,-0.1866540014743805
1711523604365747000,9.480746826171876,9.779748916625977,0.6991379857063293,-0.1951580047607422
1711523604375393000,9.49039306640625,9.780033111572266,0.6942099928855896,-0.19851599633693695
1711523604385038600,9.50003857421875,9.778682708740234,0.7130749821662903,-0.19817399978637695
1711523604394684700,9.5096845703125,9.778715133666992,0.7139059901237488,-0.19357499480247498
1711523604404330500,9.51933056640625,9.776761054992676,0.7428539991378784,-0.18304499983787537
1711523604413976300,9.528976318359375,9.77669906616211,0.7443000078201294,-0.1804489940404892
1711523604423622100,9.5386220703125,9.774006843566895,0.7781980037689209,-0.1832910031080246
1711523604433268200,9.548268310546876,9.774198532104492,0.7754470109939575,-0.184688001871109
1711523604442914000,9.5579140625,9.772324562072754,0.7979670166969299,-0.1879190057516098
1711523604452560000,9.567559814453125,9.773077964782715,0.789027988910675,-0.1864430010318756
1711523604462206000,9.5772060546875,9.771613121032715,0.807017982006073,-0.18625900149345398
1711523604471851800,9.586851806640626,9.7726411819458,0.7951480150222778,-0.1832839995622635
1711523604481497600,9.59649755859375,9.771280288696289,0.8143479824066162,-0.17120200395584106
1711523604491143400,9.606143310546875,9.772079467773438,0.8045849800109863,-0.17175599932670593
1711523604500789200,9.615789306640625,9.771034240722656,0.8213729858398438,-0.15041600167751312
1711523604510435300,9.625435302734376,9.771069526672363,0.8201979994773865,-0.15443100035190582
1711523604520081000,9.635080810546874,9.768689155578613,0.8514670133590698,-0.13452500104904175
1711523604529726700,9.644726806640625,9.768109321594238,0.858614981174469,-0.13119299709796906
1711523604539372500,9.65437255859375,9.764799118041992,0.8990240097045898,-0.1041020005941391
1711523604549018600,9.6640185546875,9.763895034790039,0.9090909957885742,-0.10139600187540054
1711523604558664700,9.673664794921875,9.75961685180664,0.9557939767837524,-0.08187799900770187
1711523604568310500,9.683310546875,9.758962631225586,0.9624000191688538,-0.08264800161123276
1711523604577956400,9.692956298828125,9.755071640014648,1.0022519826889038,-0.06671500205993652
1711523604587602200,9.702602294921874,9.755426406860352,0.9987050294876099,-0.06798999756574631
1711523604597248000,9.712248046875,9.753008842468262,1.0236170291900635,-0.03779799863696098
1711523604606893800,9.721893798828125,9.754462242126465,1.00969398021698,-0.03713399916887283
1711523604616539600,9.73153955078125,9.75402545928955,1.0145729780197144,0.0023499999660998583
1711523604626185700,9.741185791015624,9.755655288696289,0.9987879991531372,0.00037900000461377203
1711523604635831600,9.75083154296875,9.75631046295166,0.9920039772987366,0.026993999257683754
1711523604645477600,9.7604775390625,9.756757736206055,0.9877610206604004,0.01968800090253353
1711523604655123500,9.77012353515625,9.755392074584961,1.0010000467300415,0.026870999485254288
1711523604664769300,9.779769287109374,9.75439453125,1.0107710361480713,0.022951999679207802
1711523604674415000,9.7894150390625,9.751666069030762,1.0368510484695435,0.01855199970304966
1711523604684061000,9.79906103515625,9.74984073638916,1.053853988647461,0.01959400065243244
1711523604693707000,9.80870703125,9.746479034423828,1.0845969915390015,0.013155000284314156
1711523604703352800,9.818352783203125,9.744780540466309,1.099668025970459,0.019781000912189484
1711523604712999000,9.8279990234375,9.74284553527832,1.116621971130371,0.022343000397086143
1711523604722644700,9.837644775390626,9.742066383361816,1.1232819557189941,0.02758299931883812
1711523604732290800,9.847290771484374,9.74272346496582,1.117596983909607,0.026203999295830727
1711523604741936400,9.856936279296875,9.74250602722168,1.119433045387268,0.028737999498844147
1711523604751582500,9.86658251953125,9.745124816894531,1.0965030193328857,0.024543000385165215
1711523604761228000,9.87622802734375,9.745092391967773,1.0965980291366577,0.03186500072479248
1711523604770874000,9.8858740234375,9.748955726623535,1.0619299411773682,0.023267000913619995
1711523604780520200,9.895520263671875,9.748763084411621,1.0633230209350586,0.03678100183606148
1711523604790165800,9.905165771484375,9.752638816833496,1.0276999473571777,0.015968000516295433
1711523604799811800,9.914811767578126,9.752047538757324,1.032986044883728,0.030038999393582344
1711523604809457400,9.92445751953125,9.755736351013184,0.9979770183563232,0.004433999769389629
1711523604819103500,9.934103515625,9.755139350891113,1.003654956817627,0.01741199940443039
1711523604828749300,9.943749267578125,9.758723258972168,0.9682570099830627,-0.013458999805152416
1711523604838395400,9.9533955078125,9.758551597595215,0.9700729846954346,-0.003602999961003661
1711523604848041200,9.963041259765625,9.761402130126953,0.9400839805603027,-0.040794000029563904
1711523604857687000,9.97268701171875,9.761956214904785,0.9348629713058472,-0.024862999096512794
1711523604867332900,9.982332763671875,9.765442848205566,0.8968859910964966,-0.04585599899291992
1711523604876979000,9.99197900390625,9.766288757324219,0.8884739875793457,-0.024675000458955765
1711523604886624800,10.001624755859375,9.769465446472168,0.8516409993171692,-0.0512159988284111
1711523604896270600,10.0112705078125,9.769696235656738,0.8499569892883301,-0.03154100105166435
1711523604905916400,10.02091650390625,9.772306442260742,0.8172940015792847,-0.06668700277805328
1711523604915562200,10.030562255859374,9.771918296813965,0.8234590291976929,-0.04382200166583061
1711523604925208300,10.040208251953125,9.773543357849121,0.800927996635437,-0.08211500197649002
1711523604934854100,10.049854248046875,9.772940635681152,0.8106160163879395,-0.054104000329971313
1711523604944500000,10.0595,9.774862289428711,0.7863879799842834,-0.06342799961566925
1711523604954145800,10.069145751953124,9.774235725402832,0.7954630255699158,-0.04407399892807007
1711523604963791600,10.07879150390625,9.776156425476074,0.7692220211029053,-0.07384400069713593
1711523604973437700,10.088437744140625,9.77537727355957,0.7799779772758484,-0.06333799660205841
1711523604983083500,10.09808349609375,9.77648639678955,0.7606930136680603,-0.10973899811506271
1711523604992729600,10.1077294921875,9.775687217712402,0.7730510234832764,-0.09326999634504318
1711523605002375400,10.11737548828125,9.775895118713379,0.7614849805831909,-0.1496340036392212
1711523605012021200,10.127021240234376,9.77554702758789,0.7698109745979309,-0.12833599746227264
1711523605021667000,10.1366669921875,9.775248527526855,0.7613919973373413,-0.1875389963388443
1711523605031313000,10.14631298828125,9.775477409362793,0.7629250288009644,-0.16842900216579437
1711523605040958700,10.155958740234375,9.776724815368652,0.7377079725265503,-0.2044849991798401
1711523605050604800,10.165604736328126,9.777201652526855,0.7341309785842896,-0.19433799386024475
1711523605060251000,10.1752509765625,9.778319358825684,0.7050880193710327,-0.24026499688625336
1711523605069896400,10.184896484375,9.778674125671387,0.6988019943237305,-0.2440750002861023
1711523605079542500,10.19454248046875,9.7775297164917,0.6794620156288147,-0.3296090066432953
1711523605089188400,10.204188232421876,9.777400016784668,0.6714919805526733,-0.34918200969696045
1711523605098834200,10.213834228515625,9.774643898010254,0.6443219780921936,-0.45997101068496704
1711523605108480000,10.22347998046875,9.774271011352539,0.6341879963874817,-0.4814800024032593
1711523605118125800,10.233125732421875,9.772789001464844,0.5859820246696472,-0.5653210282325745
1711523605127772000,10.24277197265625,9.77377700805664,0.5756589770317078,-0.5588439702987671
1711523605137417700,10.252417724609375,9.773457527160645,0.5338789820671082,-0.6040449738502502
1711523605147063800,10.262063720703125,9.775311470031738,0.5284969806671143,-0.5782740116119385
1711523605156709600,10.271709716796876,9.776643753051758,0.4834519922733307,-0.5948920249938965
1711523605166355500,10.28135546875,9.777870178222656,0.4817900061607361,-0.5757849812507629
1711523605176001300,10.291001220703125,9.77570629119873,0.45006299018859863,-0.6351349949836731
1711523605185647000,10.300647216796875,9.775010108947754,0.45459699630737305,-0.6425750255584717
1711523605195293200,10.310293212890626,9.767984390258789,0.4206109941005707,-0.761551022529602
1711523605204939000,10.31993896484375,9.765214920043945,0.4257090091705322,-0.7935590147972107
1711523605214585000,10.329585205078125,9.764262199401855,0.34395700693130493,-0.8433610200881958
1711523605224231000,10.33923095703125,9.76207447052002,0.3356109857559204,-0.8715850114822388
1711523605233876700,10.348876708984376,9.764209747314453,0.2515929937362671,-0.8759629726409912
1711523605243522600,10.3585224609375,9.76307201385498,0.2408050000667572,-0.891543984413147
1711523605253168400,10.36816845703125,9.766983985900879,0.1684589982032776,-0.8648890256881714
1711523605262814500,10.377814453125,9.767231941223145,0.16295699775218964,-0.8631340265274048
1711523605272460300,10.387460205078124,9.770129203796387,0.11014299839735031,-0.8383380174636841
1711523605282106000,10.397106201171875,9.76945972442627,0.11594299972057343,-0.8453279733657837
1711523605291752000,10.406751953125,9.77161693572998,0.05821999907493591,-0.8261409997940063
1711523605301398000,10.41639794921875,9.769780158996582,0.06555400043725967,-0.8470410108566284
1711523605311043800,10.4260439453125,9.77256965637207,-0.0007719999994151294,-0.8168669939041138
1711523605320689700,10.435689697265625,9.77071475982666,0.002343999920412898,-0.8387609720230103
1711523605330335700,10.445335693359375,9.775840759277344,-0.057346001267433167,-0.7746070027351379
1711523605339981600,10.454981689453126,9.774456024169922,-0.059773001819849014,-0.7917259931564331
1711523605349627400,10.46462744140625,9.780232429504395,-0.1013299971818924,-0.7121639847755432
1711523605359273200,10.474273193359375,9.7783203125,-0.10444500297307968,-0.73750901222229
1711523605368919000,10.4839189453125,9.783186912536621,-0.13536100089550018,-0.6643210053443909
1711523605378565400,10.4935654296875,9.781371116638184,-0.138264998793602,-0.6899769902229309
1711523605388211200,10.503211181640625,9.786224365234375,-0.1578029990196228,-0.6126329898834229
1711523605397857000,10.51285693359375,9.785494804382324,-0.15928299725055695,-0.6237919926643372
1711523605407502800,10.5225029296875,9.791025161743164,-0.1685349941253662,-0.527072012424469
1711523605417148700,10.532148681640624,9.791030883789062,-0.16948600113391876,-0.526652991771698
1711523605426794500,10.54179443359375,9.795723915100098,-0.17972399294376373,-0.4264650046825409
1711523605436440300,10.5514404296875,9.7957124710083,-0.18240800499916077,-0.42559701204299927
1711523605446086100,10.561086181640626,9.799171447753906,-0.1903730034828186,-0.33225300908088684
1711523605455732200,10.570732177734374,9.798958778381348,-0.19803400337696075,-0.33403998613357544
1711523605465378000,10.5803779296875,9.801189422607422,-0.20258399844169617,-0.25697198510169983
1711523605475024100,10.590024169921875,9.800788879394531,-0.2166520059108734,-0.26074299216270447
1711523605484670000,10.599669921875,9.802507400512695,-0.2339950054883957,-0.16275399923324585
1711523605494315800,10.609315673828124,9.802206039428711,-0.24826699495315552,-0.1596899926662445
1711523605503961600,10.618961669921875,9.802836418151855,-0.26720499992370605,-0.05822800099849701
1711523605513607700,10.628607666015625,9.80270004272461,-0.2750779986381531,-0.04233400151133537
1711523605523253500,10.63825341796875,9.8024263381958,-0.283951997756958,0.04703700169920921
1711523605532899300,10.6478994140625,9.802282333374023,-0.28468000888824463,0.06785299628973007
1711523605542545400,10.65754541015625,9.801257133483887,-0.29050299525260925,0.14617100358009338
1711523605552191500,10.66719140625,9.801042556762695,-0.2899860143661499,0.1608390063047409
1711523605561837300,10.67683740234375,9.799750328063965,-0.28389498591423035,0.23381799459457397
1711523605571483100,10.686483154296875,9.799636840820312,-0.2787030041217804,0.24461199343204498
1711523605581129000,10.69612890625,9.797256469726562,-0.27084600925445557,0.33285900950431824
1711523605590774800,10.70577490234375,9.797050476074219,-0.26181599497795105,0.34591999650001526
1711523605600420600,10.715420654296874,9.79391098022461,-0.249439999461174,0.43298301100730896
1711523605610066700,10.725066650390625,9.793160438537598,-0.2395090013742447,0.45500698685646057
1711523605619712500,10.73471240234375,9.790024757385254,-0.21931199729442596,0.5269740223884583
1711523605629358600,10.744358642578124,9.78860092163086,-0.20615899562835693,0.5578179955482483
1711523605639004400,10.75400439453125,9.786794662475586,-0.18159200251102448,0.596705973148346
1711523605648650200,10.763650146484375,9.784611701965332,-0.1648229956626892,0.6360719799995422
1711523605658296000,10.773296142578126,9.783679962158203,-0.1391270011663437,0.656237006187439
1711523605667942000,10.78294189453125,9.78139877319336,-0.12012500315904617,0.6929630041122437
1711523605677587700,10.792587646484375,9.781397819519043,-0.10019099712371826,0.6961309909820557
1711523605687233500,10.802233642578125,9.779852867126465,-0.08258199691772461,0.7197480201721191
1711523605696879600,10.811879638671876,9.78125286102295,-0.06592299789190292,0.7022429704666138
1711523605706525400,10.821525390625,9.780730247497559,-0.0467430017888546,0.7109860181808472
1711523605716171500,10.831171630859375,9.783268928527832,-0.023871000856161118,0.6763539910316467
1711523605725817300,10.8408173828125,9.783600807189941,-0.00046499999007210135,0.6719589829444885
1711523605735463200,10.850463134765626,9.785898208618164,0.024584999307990074,0.6371719837188721
1711523605745109200,10.860109130859374,9.786758422851562,0.05030699819326401,0.6222440004348755
1711523605754755000,10.869755126953125,9.787577629089355,0.07396300137042999,0.6068120002746582
1711523605764401000,10.87940087890625,9.78855037689209,0.09645500034093857,0.5876629948616028
1711523605774047000,10.889046875,9.789114952087402,0.10827499628067017,0.5761129856109619
1711523605783692800,10.89869287109375,9.79001522064209,0.12438499927520752,0.5572460293769836
1711523605793339000,10.9083388671875,9.791770935058594,0.13725200295448303,0.5222859978675842
1711523605802984400,10.917984375,9.79260540008545,0.15296800434589386,0.501865029335022
1711523605812630500,10.927630615234374,9.794608116149902,0.18354499340057373,0.44982999563217163
1711523605822276400,10.9372763671875,9.795245170593262,0.20268400013446808,0.4271659851074219
1711523605831922200,10.946922119140625,9.796048164367676,0.23588700592517853,0.39009198546409607
1711523605841568300,10.956568359375,9.796581268310547,0.2562989890575409,0.3628999888896942
1711523605851213800,10.9662138671875,9.796212196350098,0.28930899500846863,0.3477399945259094
1711523605860860000,10.97585986328125,9.796466827392578,0.31192100048065186,0.31988099217414856
1711523605870506000,10.985506103515625,9.795345306396484,0.34441500902175903,0.32089999318122864
1711523605880151800,10.99515185546875,9.794830322265625,0.3745270073413849,0.3023360073566437
1711523605889797600,11.004797607421875,9.793070793151855,0.4194369912147522,0.3003929853439331
1711523605899443500,11.014443359375,9.791607856750488,0.45704200863838196,0.29313400387763977
1711523605909089300,11.02408935546875,9.788612365722656,0.5112770199775696,0.30338799953460693
1711523605918735400,11.0337353515625,9.786694526672363,0.5448219776153564,0.30687499046325684
1711523605928381200,11.043381103515625,9.78281021118164,0.5929679870605469,0.3397029936313629
1711523605938027000,11.053027099609375,9.781800270080566,0.6106029748916626,0.3375299870967865
1711523605947672800,11.0626728515625,9.7783842086792,0.6338469982147217,0.38967299461364746
1711523605957319000,11.07231884765625,9.778693199157715,0.638824999332428,0.37344399094581604
1711523605966964700,11.08196484375,9.775064468383789,0.6699010133743286,0.4120210111141205
1711523605976610600,11.091610595703125,9.775604248046875,0.6742780208587646,0.3915489912033081
1711523605986256600,11.101256591796876,9.771607398986816,0.7087810039520264,0.428615003824234
1711523605995902500,11.11090234375,9.771707534790039,0.7152490019798279,0.4153589904308319
1711523606005548300,11.12054833984375,9.767923355102539,0.7490119934082031,0.4438999891281128
1711523606015194000,11.130194091796875,9.767449378967285,0.7557139992713928,0.44296398758888245
1711523606024840000,11.13983984375,9.76393985748291,0.7910529971122742,0.4583660066127777
1711523606034485800,11.14948583984375,9.76304817199707,0.7931320071220398,0.4735170006752014
1711523606044131800,11.1591318359375,9.758223533630371,0.8297320008277893,0.5089060068130493
1711523606053778000,11.16877783203125,9.757408142089844,0.825751006603241,0.5305799841880798
1711523606063423500,11.178423583984374,9.752205848693848,0.8589349985122681,0.5719190239906311
1711523606073069600,11.188069580078125,9.751708030700684,0.8601089715957642,0.5786179900169373
1711523606082715400,11.19771533203125,9.745946884155273,0.9082409739494324,0.6016659736633301
1711523606092361200,11.207361328125,9.745579719543457,0.9199159741401672,0.5897570252418518
1711523606102007300,11.21700732421875,9.738661766052246,0.976872980594635,0.6120139956474304
1711523606111653000,11.226653076171875,9.738105773925781,0.9892979860305786,0.6008170247077942
1711523606121299200,11.23629931640625,9.732516288757324,1.0397449731826782,0.6061660051345825
1711523606130945300,11.2459453125,9.731301307678223,1.0532660484313965,0.6023240089416504
1711523606140591000,11.255591064453125,9.725743293762207,1.1127220392227173,0.5849440097808838
1711523606150237000,11.26523681640625,9.723860740661621,1.1222649812698364,0.5978649854660034
1711523606159882800,11.2748828125,9.717484474182129,1.1817799806594849,0.5867549777030945
1711523606169528600,11.284528564453124,9.716588973999023,1.1780710220336914,0.6086379885673523
1711523606179174400,11.29417431640625,9.713033676147461,1.2139259576797485,0.594763994216919
1711523606188820200,11.3038203125,9.713918685913086,1.2021750211715698,0.6041010022163391
1711523606198466000,11.313466064453126,9.713000297546387,1.2184460163116455,0.5859950184822083
1711523606208112000,11.323112060546874,9.713751792907715,1.2083079814910889,0.5944799780845642
1711523606217758200,11.33275830078125,9.712343215942383,1.2167609930038452,0.6002190113067627
1711523606227404000,11.342404052734375,9.711153030395508,1.2160650491714478,0.6205530166625977
1711523606237049900,11.3520498046875,9.70827865600586,1.2179540395736694,0.6605439782142639
1711523606246695700,11.36169580078125,9.705113410949707,1.2260819673538208,0.6912879943847656
1711523606256341800,11.371341796875,9.702585220336914,1.2275609970092773,0.7234190106391907
1711523606265987600,11.380987548828125,9.698258399963379,1.2428220510482788,0.754692018032074
1711523606275633700,11.390633544921876,9.69713020324707,1.2446670532226562,0.766057014465332
1711523606285279500,11.400279541015625,9.6914701461792,1.2680729627609253,0.7986099720001221
1711523606294925300,11.40992529296875,9.690815925598145,1.261788010597229,0.8163170218467712
1711523606304571100,11.419571044921875,9.684435844421387,1.291430950164795,0.8451550006866455
1711523606314217200,11.42921728515625,9.68426513671875,1.2738230228424072,0.8733649849891663
1711523606323863000,11.438863037109375,9.679146766662598,1.3013499975204468,0.8893870115280151
1711523606333508900,11.4485087890625,9.681901931762695,1.2692619562149048,0.9056059718132019
1711523606343155000,11.458155029296876,9.679208755493164,1.2895959615707397,0.9056640267372131
1711523606352801000,11.467801025390624,9.687788009643555,1.2475999593734741,0.8721470236778259
1711523606362446800,11.47744677734375,9.687254905700684,1.2637239694595337,0.8546940088272095
1711523606372092700,11.4870927734375,9.700540542602539,1.2147330045700073,0.7709270119667053
1711523606381738500,11.496738525390626,9.700517654418945,1.2245969772338867,0.7554489970207214
1711523606391384300,11.50638427734375,9.71489143371582,1.159432053565979,0.6685739755630493
1711523606401030100,11.516030029296875,9.715030670166016,1.1612809896469116,0.6633089780807495
1711523606410676200,11.52567626953125,9.727482795715332,1.0952600240707397,0.5889509916305542
1711523606420322300,11.535322265625,9.728550910949707,1.0931119918823242,0.5751469731330872
1711523606429968100,11.544968017578125,9.739388465881348,1.0274540185928345,0.5089560151100159
1711523606439614000,11.554614013671875,9.742497444152832,1.0165280103683472,0.4698939919471741
1711523606449259800,11.564259765625,9.752140998840332,0.9497339725494385,0.40514498949050903
1711523606458905600,11.573905517578124,9.756535530090332,0.9257310032844543,0.3513000011444092
1711523606468551700,11.5835517578125,9.765093803405762,0.8541589975357056,0.28937700390815735
1711523606478197500,11.593197509765625,9.76905345916748,0.8241559863090515,0.23818500339984894
1711523606487843600,11.602843505859376,9.775840759277344,0.7509790062904358,0.19833500683307648
1711523606497489400,11.612489501953124,9.778613090515137,0.7226269841194153,0.16406099498271942
1711523606507135200,11.62213525390625,9.78347110748291,0.6567170023918152,0.1509779989719391
1711523606516781000,11.631781005859375,9.78530502319336,0.6332839727401733,0.1309330016374588
1711523606526427100,11.64142724609375,9.788747787475586,0.5804780125617981,0.11765599995851517
1711523606536073000,11.651072998046875,9.789901733398438,0.5635849833488464,0.1028129979968071
1711523606545718800,11.66071875,9.791922569274902,0.532380998134613,0.07216399908065796
1711523606555364600,11.670364501953125,9.792471885681152,0.5237060189247131,0.06011899933218956
1711523606565010700,11.6800107421875,9.79358196258545,0.5051239728927612,0.031578999012708664
1711523606574656500,11.689656494140625,9.793675422668457,0.5036190152168274,0.025661999359726906
1711523606584302600,11.699302490234375,9.794123649597168,0.4953309893608093,0.013515000231564045
1711523606593948400,11.708948486328126,9.794055938720703,0.49668800830841064,0.01294699963182211
1711523606603594500,11.718594482421874,9.794150352478027,0.49305298924446106,0.04354500025510788
1711523606613240300,11.728240234375,9.794367790222168,0.4882650077342987,0.048298001289367676
1711523606622886100,11.73788623046875,9.794297218322754,0.4834960103034973,0.0914819985628128
1711523606632532000,11.747531982421876,9.794730186462402,0.4716919958591461,0.10555300116539001
1711523606642178000,11.757177978515625,9.794804573059082,0.4577009975910187,0.15065699815750122
1711523606651824000,11.76682421875,9.795007705688477,0.4466550052165985,0.16943499445915222
1711523606661470000,11.776469970703126,9.794822692871094,0.43559500575065613,0.20514699816703796
1711523606671115800,11.78611572265625,9.794743537902832,0.42583099007606506,0.2281319946050644
1711523606680761600,11.79576171875,9.794382095336914,0.42279401421546936,0.24841299653053284
1711523606690407400,11.805407470703125,9.794233322143555,0.41541698575019836,0.26610898971557617
1711523606700053200,11.81505322265625,9.793779373168945,0.41843101382255554,0.2778170108795166
1711523606709699000,11.824698974609374,9.793907165527344,0.41131800413131714,0.28386399149894714
1711523606719345200,11.83434521484375,9.793693542480469,0.4170759916305542,0.2827959954738617
1711523606728991200,11.8439912109375,9.794169425964355,0.4090360105037689,0.2780579924583435
1711523606738637000,11.853636962890626,9.793973922729492,0.4063340127468109,0.28874701261520386
1711523606748283000,11.863282958984374,9.794486045837402,0.39418599009513855,0.2881839871406555
1711523606757928700,11.8729287109375,9.794039726257324,0.3862859904766083,0.3129499852657318
1711523606767574800,11.88257470703125,9.794455528259277,0.3746579885482788,0.31405898928642273
1711523606777220400,11.892220458984376,9.793862342834473,0.3732379972934723,0.3336600065231323
1711523606786866400,11.901866455078125,9.794230461120605,0.3657970130443573,0.33115100860595703
1711523606796512300,11.91151220703125,9.793712615966797,0.37132498621940613,0.3401390016078949
1711523606806158300,11.921158447265626,9.79407024383545,0.37013500928878784,0.33103200793266296
1711523606815804200,11.93080419921875,9.793598175048828,0.3852579891681671,0.3277199864387512
1711523606825450200,11.9404501953125,9.793824195861816,0.38794299960136414,0.3176310062408447
1711523606835096000,11.950095947265625,9.792969703674316,0.4036870002746582,0.3242790102958679
1711523606844742000,11.959741943359376,9.793190002441406,0.40463998913764954,0.31633999943733215
1711523606854388000,11.969387939453124,9.791672706604004,0.4279150068759918,0.3323119878768921
1711523606864033800,11.97903369140625,9.79216480255127,0.424919992685318,0.32145100831985474
1711523606873679400,11.988679443359375,9.790849685668945,0.4427439868450165,0.33708199858665466
1711523606883325400,11.998325439453126,9.791566848754883,0.4371210038661957,0.3233160078525543
1711523606892971500,12.007971435546875,9.790471076965332,0.4475780129432678,0.34167200326919556
1711523606902617300,12.017617431640625,9.790934562683105,0.44411298632621765,0.33281099796295166
1711523606912263400,12.027263427734376,9.789491653442383,0.45634201169013977,0.3577669858932495
1711523606921909200,12.0369091796875,9.789478302001953,0.45955100655555725,0.35398799180984497
1711523606931555000,12.04655517578125,9.78756046295166,0.48712700605392456,0.36982500553131104
1711523606941201000,12.056200927734375,9.787212371826172,0.49599799513816833,0.36722099781036377
1711523606950846700,12.0658466796875,9.784701347351074,0.5346260070800781,0.37971198558807373
1711523606960492800,12.075492919921874,9.784356117248535,0.5437610149383545,0.37560999393463135
1711523606970139000,12.085138916015625,9.78149127960205,0.5913000106811523,0.37838101387023926
1711523606979784700,12.09478466796875,9.781497955322266,0.5965380072593689,0.3699049949645996
1711523606989430500,12.104430419921876,9.778939247131348,0.630200982093811,0.3815459907054901
1711523606999076400,12.114076416015624,9.77945613861084,0.6277009844779968,0.37231001257896423
1711523607008722200,12.12372216796875,9.777376174926758,0.650970995426178,0.38670098781585693
1711523607018368000,12.133367919921875,9.778212547302246,0.6442019939422607,0.3767789900302887
1711523607028014000,12.14301416015625,9.776869773864746,0.6618949770927429,0.3809249997138977
1711523607037660000,12.152659912109375,9.77772331237793,0.6554809808731079,0.369937002658844
1711523607047306000,12.162305908203125,9.776741027832031,0.6737930178642273,0.3629240095615387
1711523607056951800,12.171951904296876,9.777406692504883,0.670678973197937,0.35058000683784485
1711523607066598000,12.181597900390624,9.776713371276855,0.684440016746521,0.3432140052318573
1711523607076243700,12.19124365234375,9.777251243591309,0.679718017578125,0.3372420072555542
1711523607085889500,12.2008896484375,9.776453971862793,0.6919140219688416,0.3355239927768707
1711523607095535400,12.210535400390626,9.777283668518066,0.681581974029541,0.332518994808197
1711523607105181400,12.220181396484374,9.7776460647583,0.6789730191230774,0.32713401317596436
1711523607114827300,12.2298271484375,9.778775215148926,0.6640790104866028,0.32393500208854675
1711523607124473300,12.239473388671875,9.77982234954834,0.6585609912872314,0.3029170036315918
1711523607134119200,12.249119140625,9.780659675598145,0.6487770080566406,0.2969389855861664
1711523607143765000,12.258764892578125,9.781242370605469,0.652213990688324,0.26888900995254517
1711523607153410800,12.268410888671875,9.781292915344238,0.6542289853096008,0.26206299662590027
1711523607163056600,12.278056640625,9.780038833618164,0.6805559992790222,0.24100300669670105
1711523607172702700,12.28770263671875,9.779363632202148,0.6924660205841064,0.23433999717235565
1711523607182348800,12.297348876953125,9.777730941772461,0.713720977306366,0.23868000507354736
1711523607191995000,12.306994873046875,9.777120590209961,0.7220969796180725,0.2384680062532425
1711523607201640700,12.316640625,9.776419639587402,0.7240260243415833,0.26032599806785583
1711523607211286500,12.32628662109375,9.776308059692383,0.7224829792976379,0.26870399713516235
1711523607220932400,12.335932373046875,9.77721118927002,0.6968479752540588,0.3015710115432739
1711523607230578200,12.345578125,9.777165412902832,0.6908760070800781,0.3164129853248596
1711523607240224300,12.355224365234376,9.778465270996094,0.6534590125083923,0.3535569906234741
1711523607249870000,12.3648701171875,9.778019905090332,0.6494200229644775,0.3727959990501404
1711523607259516200,12.37451611328125,9.779143333435059,0.6124150156974792,0.4045979976654053
1711523607269162000,12.384161865234375,9.778307914733887,0.6117479801177979,0.425258994102478
1711523607278807800,12.393807861328124,9.779180526733398,0.5789430141448975,0.4503509998321533
1711523607288453600,12.40345361328125,9.778097152709961,0.5812469720840454,0.4704900085926056
